ExperimentName	Subject	Session	AgeRange	Clock.Information	DataFile.Basename	Display.RefreshRate	ExperimentVersion	GoodBye.FinishTime	Group	RandomSeed	RuntimeCapabilities	RuntimeVersion	RuntimeVersionExpected	SessionDate	SessionStartDateTimeUtc	SessionTime	StudioVersion	Block	PleaseRest.ActionDelay	PleaseRest.ActionTime	PleaseRest.CustomOffsetTime	PleaseRest.CustomOnsetTime	PleaseRest.Duration	PleaseRest.FinishTime	PleaseRest.OffsetDelay	PleaseRest.OffsetTime	PleaseRest.OnsetDelay	PleaseRest.OnsetTime	PleaseRest.OnsetToOnsetTime	PleaseRest.PendingInputMasks	PleaseRest.PreRelease	PleaseRest.StartTime	PleaseRest.TargetOffsetTime	PleaseRest.TargetOnsetTime	PleaseRest.TimingMode	Procedure[Block]	RunList	RunList.Cycle	RunList.Sample	Running[Block]	ScannerTrigger.OffsetTime	ScannerTrigger.RESP	ScannerTrigger.RTTime	ScannerTrigger.StartTime	Trial	BlockNumber	Doors.ACC	Doors.CRESP	Doors.DurationError	Doors.OnsetDelay	Doors.OnsetTime	Doors.OnsetToOnsetTime	Doors.RESP	Doors.RT	Doors.RTTime	Fixation1.DurationError	Fixation1.OffsetTime	Fixation1.OnsetDelay	Fixation1.OnsetTime	Fixation1.OnsetToOnsetTime	Fixation2.ACC	Fixation2.ActionDelay	Fixation2.ActionTime	Fixation2.CRESP	Fixation2.CustomOffsetTime	Fixation2.CustomOnsetTime	Fixation2.Duration	Fixation2.DurationError	Fixation2.FinishTime	Fixation2.OffsetDelay	Fixation2.OffsetTime	Fixation2.OnsetDelay	Fixation2.OnsetTime	Fixation2.OnsetToOnsetTime	Fixation2.PendingInputMasks	Fixation2.PreRelease	Fixation2.RESP	Fixation2.RT	Fixation2.RTTime	Fixation2.StartTime	Fixation2.Tag	Fixation2.TargetOffsetTime	Fixation2.TargetOnsetTime	Fixation2.TimingMode	FollowWinLoss	Image	ITI	ITI.Duration	ITI.DurationError	ITI.OffsetTime	ITI.OnsetDelay	ITI.OnsetTime	ITI.OnsetToOnsetTime	Outcome.ACC	Outcome.ActionDelay	Outcome.ActionTime	Outcome.CRESP	Outcome.CustomOffsetTime	Outcome.CustomOnsetTime	Outcome.Duration	Outcome.DurationError	Outcome.FinishTime	Outcome.OffsetDelay	Outcome.OffsetTime	Outcome.OnsetDelay	Outcome.OnsetTime	Outcome.OnsetToOnsetTime	Outcome.PendingInputMasks	Outcome.PreRelease	Outcome.RESP	Outcome.RT	Outcome.RTTime	Outcome.StartTime	Outcome.Tag	Outcome.TargetOffsetTime	Outcome.TargetOnsetTime	Outcome.TimingMode	Procedure[Trial]	RunBlock1	RunBlock1.Cycle	RunBlock1.Sample	RunBlock2	RunBlock2.Cycle	RunBlock2.Sample	RunLoseWin	Running[Trial]	RunWinLose	TrialListPickLoss	TrialListPickWin	TrialType
SPADE_Doors_040318	6003	1	18+	<?xml version="1.0"?>\n<Clock xmlns:dt="urn:schemas-microsoft-com:datatypes"><Description dt:dt="string">E-Prime Primary Realtime Clock</Description><StartTime><Timestamp dt:dt="int">0</Timestamp><DateUtc dt:dt="string">2018-04-25T23:17:09Z</DateUtc></StartTime><FrequencyChanges><FrequencyChange><Frequency dt:dt="r8">3410097</Frequency><Timestamp dt:dt="r8">118024403687</Timestamp><Current dt:dt="r8">0</Current><DateUtc dt:dt="string">2018-04-25T23:17:09Z</DateUtc></FrequencyChange></FrequencyChanges></Clock>\n	SPADE_Doors_040318-6003-1	75.030	1.0.0.268	695065	1	2060943687	Professional	2.0.10.356	2.0.10.356	04-25-2018		19:17:09	2.0.10.252	1	0	385266	0	0	5000	390266	0	390266	12	385266	0	0	0	385156	390266	385254	0	RunLoseWin	1	1	1	RunList	112718	t	112717	100927	1	1																																																																								LoseInstructionProc	1	1	1				RunLoseWin	RunBlock1				
SPADE_Doors_040318	6003	1	18+	<?xml version="1.0"?>\n<Clock xmlns:dt="urn:schemas-microsoft-com:datatypes"><Description dt:dt="string">E-Prime Primary Realtime Clock</Description><StartTime><Timestamp dt:dt="int">0</Timestamp><DateUtc dt:dt="string">2018-04-25T23:17:09Z</DateUtc></StartTime><FrequencyChanges><FrequencyChange><Frequency dt:dt="r8">3410097</Frequency><Timestamp dt:dt="r8">118024403687</Timestamp><Current dt:dt="r8">0</Current><DateUtc dt:dt="string">2018-04-25T23:17:09Z</DateUtc></FrequencyChange></FrequencyChanges></Clock>\n	SPADE_Doors_040318-6003-1	75.030	1.0.0.268	695065	1	2060943687	Professional	2.0.10.356	2.0.10.356	04-25-2018		19:17:09	2.0.10.252	1	0	385266	0	0	5000	390266	0	390266	12	385266	0	0	0	385156	390266	385254	0	RunLoseWin	1	1	1	RunList	112718	t	112717	100927	2	1	1		-11	11	118358	2999		0	0	-12	118247	12	117759	599	0	0	121357		0	0	600	-10	121847	0	121847	10	121357	600	0	100		0	0	121247	fix+	121847	121347	1	blockstart	Line.bmp	3200	3200	-23	126047	23	122970	0	0	0	121957		0	0	1000	-10	122847	0	122847	10	121957	1013	0	100		0	0	121847		122847	121947	1	LoseProc	2	1	2				RunLoseWin	RunBlock1		1		loss
SPADE_Doors_040318	6003	1	18+	<?xml version="1.0"?>\n<Clock xmlns:dt="urn:schemas-microsoft-com:datatypes"><Description dt:dt="string">E-Prime Primary Realtime Clock</Description><StartTime><Timestamp dt:dt="int">0</Timestamp><DateUtc dt:dt="string">2018-04-25T23:17:09Z</DateUtc></StartTime><FrequencyChanges><FrequencyChange><Frequency dt:dt="r8">3410097</Frequency><Timestamp dt:dt="r8">118024403687</Timestamp><Current dt:dt="r8">0</Current><DateUtc dt:dt="string">2018-04-25T23:17:09Z</DateUtc></FrequencyChange></FrequencyChanges></Clock>\n	SPADE_Doors_040318-6003-1	75.030	1.0.0.268	695065	1	2060943687	Professional	2.0.10.356	2.0.10.356	04-25-2018		19:17:09	2.0.10.252	1	0	385266	0	0	5000	390266	0	390266	12	385266	0	0	0	385156	390266	385254	0	RunLoseWin	1	1	1	RunList	112718	t	112717	100927	3	1	1		-8	8	126755	2999		0	0	-8	126647	8	126155	600	0	0	129754		0	0	600	-7	130247	0	130247	7	129754	600	0	100		0	0	129647	fix+	130247	129747	1	winfollowloss	DownArrow.bmp	3200	3200	-20	134447	20	131367	0	0	0	130354		0	0	1000	-7	131247	0	131247	7	130354	1013	0	100		0	0	130247		131247	130347	1	LoseProc	3	1	3				RunLoseWin	RunBlock1		2		win
SPADE_Doors_040318	6003	1	18+	<?xml version="1.0"?>\n<Clock xmlns:dt="urn:schemas-microsoft-com:datatypes"><Description dt:dt="string">E-Prime Primary Realtime Clock</Description><StartTime><Timestamp dt:dt="int">0</Timestamp><DateUtc dt:dt="string">2018-04-25T23:17:09Z</DateUtc></StartTime><FrequencyChanges><FrequencyChange><Frequency dt:dt="r8">3410097</Frequency><Timestamp dt:dt="r8">118024403687</Timestamp><Current dt:dt="r8">0</Current><DateUtc dt:dt="string">2018-04-25T23:17:09Z</DateUtc></FrequencyChange></FrequencyChanges></Clock>\n	SPADE_Doors_040318-6003-1	75.030	1.0.0.268	695065	1	2060943687	Professional	2.0.10.356	2.0.10.356	04-25-2018		19:17:09	2.0.10.252	1	0	385266	0	0	5000	390266	0	390266	12	385266	0	0	0	385156	390266	385254	0	RunLoseWin	1	1	1	RunList	112718	t	112717	100927	4	1	1		-5	5	135152	2999		0	0	-5	135047	5	134552	600	0	0	138151		0	0	600	-4	138647	0	138647	4	138151	599	0	100		0	0	138047	fix+	138647	138147	1	lossfollowwin	Line.bmp	3200	3200	-16	142847	16	139763	0	0	0	138750		0	0	1000	-3	139647	0	139647	3	138750	1013	0	100		0	0	138647		139647	138747	1	LoseProc	4	1	4				RunLoseWin	RunBlock1		3		loss
SPADE_Doors_040318	6003	1	18+	<?xml version="1.0"?>\n<Clock xmlns:dt="urn:schemas-microsoft-com:datatypes"><Description dt:dt="string">E-Prime Primary Realtime Clock</Description><StartTime><Timestamp dt:dt="int">0</Timestamp><DateUtc dt:dt="string">2018-04-25T23:17:09Z</DateUtc></StartTime><FrequencyChanges><FrequencyChange><Frequency dt:dt="r8">3410097</Frequency><Timestamp dt:dt="r8">118024403687</Timestamp><Current dt:dt="r8">0</Current><DateUtc dt:dt="string">2018-04-25T23:17:09Z</DateUtc></FrequencyChange></FrequencyChanges></Clock>\n	SPADE_Doors_040318-6003-1	75.030	1.0.0.268	695065	1	2060943687	Professional	2.0.10.356	2.0.10.356	04-25-2018		19:17:09	2.0.10.252	1	0	385266	0	0	5000	390266	0	390266	12	385266	0	0	0	385156	390266	385254	0	RunLoseWin	1	1	1	RunList	112718	t	112717	100927	5	1	1		-1	1	143548	2999		0	0	-2	143447	2	142949	599	0	0	146547		0	0	600	0	147047	0	147047	0	146547	600	0	100		0	0	146447	fix+	147047	146547	1	lossfollowloss	Line.bmp	5300	5300	-13	153347	13	148160	0	0	0	147147		0	0	1000	0	148047	0	148047	0	147147	1013	0	100		0	0	147047		148047	147147	1	LoseProc	5	1	5				RunLoseWin	RunBlock1		4		loss
SPADE_Doors_040318	6003	1	18+	<?xml version="1.0"?>\n<Clock xmlns:dt="urn:schemas-microsoft-com:datatypes"><Description dt:dt="string">E-Prime Primary Realtime Clock</Description><StartTime><Timestamp dt:dt="int">0</Timestamp><DateUtc dt:dt="string">2018-04-25T23:17:09Z</DateUtc></StartTime><FrequencyChanges><FrequencyChange><Frequency dt:dt="r8">3410097</Frequency><Timestamp dt:dt="r8">118024403687</Timestamp><Current dt:dt="r8">0</Current><DateUtc dt:dt="string">2018-04-25T23:17:09Z</DateUtc></FrequencyChange></FrequencyChanges></Clock>\n	SPADE_Doors_040318-6003-1	75.030	1.0.0.268	695065	1	2060943687	Professional	2.0.10.356	2.0.10.356	04-25-2018		19:17:09	2.0.10.252	1	0	385266	0	0	5000	390266	0	390266	12	385266	0	0	0	385156	390266	385254	0	RunLoseWin	1	1	1	RunList	112718	t	112717	100927	6	1	1		-4	4	154051	2999		0	0	-4	153947	4	153451	600	0	0	157050		0	0	600	-3	157547	0	157547	3	157050	599	0	100		0	0	156947	fix+	157547	157047	1	lossfollowloss	Line.bmp	5300	5300	-2	163847	2	158649	0	0	0	157649		0	0	1000	-2	158547	0	158547	2	157649	1000	0	100		0	0	157547		158547	157647	1	LoseProc	6	1	6				RunLoseWin	RunBlock1		5		loss
SPADE_Doors_040318	6003	1	18+	<?xml version="1.0"?>\n<Clock xmlns:dt="urn:schemas-microsoft-com:datatypes"><Description dt:dt="string">E-Prime Primary Realtime Clock</Description><StartTime><Timestamp dt:dt="int">0</Timestamp><DateUtc dt:dt="string">2018-04-25T23:17:09Z</DateUtc></StartTime><FrequencyChanges><FrequencyChange><Frequency dt:dt="r8">3410097</Frequency><Timestamp dt:dt="r8">118024403687</Timestamp><Current dt:dt="r8">0</Current><DateUtc dt:dt="string">2018-04-25T23:17:09Z</DateUtc></FrequencyChange></FrequencyChanges></Clock>\n	SPADE_Doors_040318-6003-1	75.030	1.0.0.268	695065	1	2060943687	Professional	2.0.10.356	2.0.10.356	04-25-2018		19:17:09	2.0.10.252	1	0	385266	0	0	5000	390266	0	390266	12	385266	0	0	0	385156	390266	385254	0	RunLoseWin	1	1	1	RunList	112718	t	112717	100927	7	1	1		-6	6	164553	2999		0	0	-7	164447	7	163954	599	0	0	167552		0	0	600	-5	168047	0	168047	5	167552	600	0	100		0	0	167447	fix+	168047	167547	1	winfollowloss	DownArrow.bmp	5300	5300	-5	174347	5	169152	0	0	0	168152		0	0	1000	-5	169047	0	169047	5	168152	1000	0	100		0	0	168047		169047	168147	1	LoseProc	7	1	7				RunLoseWin	RunBlock1		6		win
SPADE_Doors_040318	6003	1	18+	<?xml version="1.0"?>\n<Clock xmlns:dt="urn:schemas-microsoft-com:datatypes"><Description dt:dt="string">E-Prime Primary Realtime Clock</Description><StartTime><Timestamp dt:dt="int">0</Timestamp><DateUtc dt:dt="string">2018-04-25T23:17:09Z</DateUtc></StartTime><FrequencyChanges><FrequencyChange><Frequency dt:dt="r8">3410097</Frequency><Timestamp dt:dt="r8">118024403687</Timestamp><Current dt:dt="r8">0</Current><DateUtc dt:dt="string">2018-04-25T23:17:09Z</DateUtc></FrequencyChange></FrequencyChanges></Clock>\n	SPADE_Doors_040318-6003-1	75.030	1.0.0.268	695065	1	2060943687	Professional	2.0.10.356	2.0.10.356	04-25-2018		19:17:09	2.0.10.252	1	0	385266	0	0	5000	390266	0	390266	12	385266	0	0	0	385156	390266	385254	0	RunLoseWin	1	1	1	RunList	112718	t	112717	100927	8	1	1		-9	9	175056	2999		0	0	-9	174947	9	174456	600	0	0	178055		0	0	600	-8	178547	0	178547	8	178055	599	0	100		0	0	177947	fix+	178547	178047	1	winfollowwin	DownArrow.bmp	3200	3200	-7	182747	7	179654	0	0	0	178654		0	0	1000	-7	179547	0	179547	7	178654	1000	0	100		0	0	178547		179547	178647	1	LoseProc	8	1	8				RunLoseWin	RunBlock1		7		win
SPADE_Doors_040318	6003	1	18+	<?xml version="1.0"?>\n<Clock xmlns:dt="urn:schemas-microsoft-com:datatypes"><Description dt:dt="string">E-Prime Primary Realtime Clock</Description><StartTime><Timestamp dt:dt="int">0</Timestamp><DateUtc dt:dt="string">2018-04-25T23:17:09Z</DateUtc></StartTime><FrequencyChanges><FrequencyChange><Frequency dt:dt="r8">3410097</Frequency><Timestamp dt:dt="r8">118024403687</Timestamp><Current dt:dt="r8">0</Current><DateUtc dt:dt="string">2018-04-25T23:17:09Z</DateUtc></FrequencyChange></FrequencyChanges></Clock>\n	SPADE_Doors_040318-6003-1	75.030	1.0.0.268	695065	1	2060943687	Professional	2.0.10.356	2.0.10.356	04-25-2018		19:17:09	2.0.10.252	1	0	385266	0	0	5000	390266	0	390266	12	385266	0	0	0	385156	390266	385254	0	RunLoseWin	1	1	1	RunList	112718	t	112717	100927	9	1	1		-6	6	183453	2998		0	0	-6	183347	6	182853	600	0	0	186451		0	0	600	-4	186947	0	186947	4	186451	600	0	100		0	0	186347	fix+	186947	186447	1	lossfollowwin	Line.bmp	1100	1100	-17	189047	17	188064	0	0	0	187051		0	0	1000	-4	187947	0	187947	4	187051	1013	0	100		0	0	186947		187947	187047	1	LoseProc	9	1	9				RunLoseWin	RunBlock1		8		loss
SPADE_Doors_040318	6003	1	18+	<?xml version="1.0"?>\n<Clock xmlns:dt="urn:schemas-microsoft-com:datatypes"><Description dt:dt="string">E-Prime Primary Realtime Clock</Description><StartTime><Timestamp dt:dt="int">0</Timestamp><DateUtc dt:dt="string">2018-04-25T23:17:09Z</DateUtc></StartTime><FrequencyChanges><FrequencyChange><Frequency dt:dt="r8">3410097</Frequency><Timestamp dt:dt="r8">118024403687</Timestamp><Current dt:dt="r8">0</Current><DateUtc dt:dt="string">2018-04-25T23:17:09Z</DateUtc></FrequencyChange></FrequencyChanges></Clock>\n	SPADE_Doors_040318-6003-1	75.030	1.0.0.268	695065	1	2060943687	Professional	2.0.10.356	2.0.10.356	04-25-2018		19:17:09	2.0.10.252	1	0	385266	0	0	5000	390266	0	390266	12	385266	0	0	0	385156	390266	385254	0	RunLoseWin	1	1	1	RunList	112718	t	112717	100927	10	1	1		-10	10	189757	2999		0	0	-10	189647	10	189157	600	0	0	192756		0	0	600	-9	193247	0	193247	9	192756	599	0	100		0	0	192647	fix+	193247	192747	1	winfollowloss	DownArrow.bmp	1100	1100	-8	195347	8	194355	0	0	0	193355		0	0	1000	-8	194247	0	194247	8	193355	1000	0	100		0	0	193247		194247	193347	1	LoseProc	10	1	10				RunLoseWin	RunBlock1		9		win
SPADE_Doors_040318	6003	1	18+	<?xml version="1.0"?>\n<Clock xmlns:dt="urn:schemas-microsoft-com:datatypes"><Description dt:dt="string">E-Prime Primary Realtime Clock</Description><StartTime><Timestamp dt:dt="int">0</Timestamp><DateUtc dt:dt="string">2018-04-25T23:17:09Z</DateUtc></StartTime><FrequencyChanges><FrequencyChange><Frequency dt:dt="r8">3410097</Frequency><Timestamp dt:dt="r8">118024403687</Timestamp><Current dt:dt="r8">0</Current><DateUtc dt:dt="string">2018-04-25T23:17:09Z</DateUtc></FrequencyChange></FrequencyChanges></Clock>\n	SPADE_Doors_040318-6003-1	75.030	1.0.0.268	695065	1	2060943687	Professional	2.0.10.356	2.0.10.356	04-25-2018		19:17:09	2.0.10.252	1	0	385266	0	0	5000	390266	0	390266	12	385266	0	0	0	385156	390266	385254	0	RunLoseWin	1	1	1	RunList	112718	t	112717	100927	11	1	1		-1	1	196048	3012		0	0	-1	195947	1	195448	600	0	0	199060		0	0	600	-13	199547	0	199547	13	199060	599	0	100		0	0	198947	fix+	199547	199047	1	winfollowwin	DownArrow.bmp	5300	5300	-25	205847	25	200672	0	0	0	199659		0	0	1000	-12	200547	0	200547	12	199659	1013	0	100		0	0	199547		200547	199647	1	LoseProc	11	1	11				RunLoseWin	RunBlock1		10		win
SPADE_Doors_040318	6003	1	18+	<?xml version="1.0"?>\n<Clock xmlns:dt="urn:schemas-microsoft-com:datatypes"><Description dt:dt="string">E-Prime Primary Realtime Clock</Description><StartTime><Timestamp dt:dt="int">0</Timestamp><DateUtc dt:dt="string">2018-04-25T23:17:09Z</DateUtc></StartTime><FrequencyChanges><FrequencyChange><Frequency dt:dt="r8">3410097</Frequency><Timestamp dt:dt="r8">118024403687</Timestamp><Current dt:dt="r8">0</Current><DateUtc dt:dt="string">2018-04-25T23:17:09Z</DateUtc></FrequencyChange></FrequencyChanges></Clock>\n	SPADE_Doors_040318-6003-1	75.030	1.0.0.268	695065	1	2060943687	Professional	2.0.10.356	2.0.10.356	04-25-2018		19:17:09	2.0.10.252	1	0	385266	0	0	5000	390266	0	390266	12	385266	0	0	0	385156	390266	385254	0	RunLoseWin	1	1	1	RunList	112718	t	112717	100927	12	1	1		-3	3	206550	2999		0	0	-3	206447	3	205950	600	0	0	209549		0	0	600	-2	210047	0	210047	2	209549	600	0	100		0	0	209447	fix+	210047	209547	1	winfollowwin	DownArrow.bmp	5300	5300	-14	216347	14	211161	0	0	0	210149		0	0	1000	-2	211047	0	211047	2	210149	1012	0	100		0	0	210047		211047	210147	1	LoseProc	12	1	12				RunLoseWin	RunBlock1		11		win
SPADE_Doors_040318	6003	1	18+	<?xml version="1.0"?>\n<Clock xmlns:dt="urn:schemas-microsoft-com:datatypes"><Description dt:dt="string">E-Prime Primary Realtime Clock</Description><StartTime><Timestamp dt:dt="int">0</Timestamp><DateUtc dt:dt="string">2018-04-25T23:17:09Z</DateUtc></StartTime><FrequencyChanges><FrequencyChange><Frequency dt:dt="r8">3410097</Frequency><Timestamp dt:dt="r8">118024403687</Timestamp><Current dt:dt="r8">0</Current><DateUtc dt:dt="string">2018-04-25T23:17:09Z</DateUtc></FrequencyChange></FrequencyChanges></Clock>\n	SPADE_Doors_040318-6003-1	75.030	1.0.0.268	695065	1	2060943687	Professional	2.0.10.356	2.0.10.356	04-25-2018		19:17:09	2.0.10.252	1	0	385266	0	0	5000	390266	0	390266	12	385266	0	0	0	385156	390266	385254	0	RunLoseWin	1	1	1	RunList	112718	t	112717	100927	13	1	1		-5	5	217052	2999		0	0	-6	216947	6	216453	599	0	0	220051		0	0	600	-4	220547	0	220547	4	220051	600	0	100		0	0	219947	fix+	220547	220047	1	lossfollowwin	Line.bmp	3200	3200	-4	224747	4	221651	0	0	0	220651		0	0	1000	-4	221547	0	221547	4	220651	1000	0	100		0	0	220547		221547	220647	1	LoseProc	13	1	13				RunLoseWin	RunBlock1		12		loss
SPADE_Doors_040318	6003	1	18+	<?xml version="1.0"?>\n<Clock xmlns:dt="urn:schemas-microsoft-com:datatypes"><Description dt:dt="string">E-Prime Primary Realtime Clock</Description><StartTime><Timestamp dt:dt="int">0</Timestamp><DateUtc dt:dt="string">2018-04-25T23:17:09Z</DateUtc></StartTime><FrequencyChanges><FrequencyChange><Frequency dt:dt="r8">3410097</Frequency><Timestamp dt:dt="r8">118024403687</Timestamp><Current dt:dt="r8">0</Current><DateUtc dt:dt="string">2018-04-25T23:17:09Z</DateUtc></FrequencyChange></FrequencyChanges></Clock>\n	SPADE_Doors_040318-6003-1	75.030	1.0.0.268	695065	1	2060943687	Professional	2.0.10.356	2.0.10.356	04-25-2018		19:17:09	2.0.10.252	1	0	385266	0	0	5000	390266	0	390266	12	385266	0	0	0	385156	390266	385254	0	RunLoseWin	1	1	1	RunList	112718	t	112717	100927	14	1	1		-2	2	225449	2999		0	0	-2	225347	2	224849	600	0	0	228448		0	0	600	-1	228947	0	228947	1	228448	600	0	100		0	0	228347	fix+	228947	228447	1	winfollowloss	DownArrow.bmp	1100	1100	0	231047	0	230047	0	0	0	229048		0	0	1000	-1	229947	0	229947	1	229048	999	0	100		0	0	228947		229947	229047	1	LoseProc	14	1	14				RunLoseWin	RunBlock1		13		win
SPADE_Doors_040318	6003	1	18+	<?xml version="1.0"?>\n<Clock xmlns:dt="urn:schemas-microsoft-com:datatypes"><Description dt:dt="string">E-Prime Primary Realtime Clock</Description><StartTime><Timestamp dt:dt="int">0</Timestamp><DateUtc dt:dt="string">2018-04-25T23:17:09Z</DateUtc></StartTime><FrequencyChanges><FrequencyChange><Frequency dt:dt="r8">3410097</Frequency><Timestamp dt:dt="r8">118024403687</Timestamp><Current dt:dt="r8">0</Current><DateUtc dt:dt="string">2018-04-25T23:17:09Z</DateUtc></FrequencyChange></FrequencyChanges></Clock>\n	SPADE_Doors_040318-6003-1	75.030	1.0.0.268	695065	1	2060943687	Professional	2.0.10.356	2.0.10.356	04-25-2018		19:17:09	2.0.10.252	1	0	385266	0	0	5000	390266	0	390266	12	385266	0	0	0	385156	390266	385254	0	RunLoseWin	1	1	1	RunList	112718	t	112717	100927	15	1	1		-6	6	231753	2999		0	0	-7	231647	7	231154	599	0	0	234752		0	0	600	-5	235247	0	235247	5	234752	600	0	100		0	0	234647	fix+	235247	234747	1	lossfollowwin	Line.bmp	3200	3200	-18	239447	18	236365	0	0	0	235352		0	0	1000	-5	236247	0	236247	5	235352	1013	0	100		0	0	235247		236247	235347	1	LoseProc	15	1	15				RunLoseWin	RunBlock1		14		loss
SPADE_Doors_040318	6003	1	18+	<?xml version="1.0"?>\n<Clock xmlns:dt="urn:schemas-microsoft-com:datatypes"><Description dt:dt="string">E-Prime Primary Realtime Clock</Description><StartTime><Timestamp dt:dt="int">0</Timestamp><DateUtc dt:dt="string">2018-04-25T23:17:09Z</DateUtc></StartTime><FrequencyChanges><FrequencyChange><Frequency dt:dt="r8">3410097</Frequency><Timestamp dt:dt="r8">118024403687</Timestamp><Current dt:dt="r8">0</Current><DateUtc dt:dt="string">2018-04-25T23:17:09Z</DateUtc></FrequencyChange></FrequencyChanges></Clock>\n	SPADE_Doors_040318-6003-1	75.030	1.0.0.268	695065	1	2060943687	Professional	2.0.10.356	2.0.10.356	04-25-2018		19:17:09	2.0.10.252	1	0	385266	0	0	5000	390266	0	390266	12	385266	0	0	0	385156	390266	385254	0	RunLoseWin	1	1	1	RunList	112718	t	112717	100927	16	1	1		-3	3	240150	2999		0	0	-3	240047	3	239550	600	0	0	243149		0	0	600	-2	243647	0	243647	2	243149	600	0	100		0	0	243047	fix+	243647	243147	1	lossfollowloss	Line.bmp	1100	1100	-14	245747	14	244761	0	0	0	243749		0	0	1000	-2	244647	0	244647	2	243749	1012	0	100		0	0	243647		244647	243747	1	LoseProc	16	1	16				RunLoseWin	RunBlock1		15		loss
SPADE_Doors_040318	6003	1	18+	<?xml version="1.0"?>\n<Clock xmlns:dt="urn:schemas-microsoft-com:datatypes"><Description dt:dt="string">E-Prime Primary Realtime Clock</Description><StartTime><Timestamp dt:dt="int">0</Timestamp><DateUtc dt:dt="string">2018-04-25T23:17:09Z</DateUtc></StartTime><FrequencyChanges><FrequencyChange><Frequency dt:dt="r8">3410097</Frequency><Timestamp dt:dt="r8">118024403687</Timestamp><Current dt:dt="r8">0</Current><DateUtc dt:dt="string">2018-04-25T23:17:09Z</DateUtc></FrequencyChange></FrequencyChanges></Clock>\n	SPADE_Doors_040318-6003-1	75.030	1.0.0.268	695065	1	2060943687	Professional	2.0.10.356	2.0.10.356	04-25-2018		19:17:09	2.0.10.252	1	0	385266	0	0	5000	390266	0	390266	12	385266	0	0	0	385156	390266	385254	0	RunLoseWin	1	1	1	RunList	112718	t	112717	100927	17	2																																																																								PrizeInstructionProc	17	1	17				RunLoseWin	RunBlock1				
SPADE_Doors_040318	6003	1	18+	<?xml version="1.0"?>\n<Clock xmlns:dt="urn:schemas-microsoft-com:datatypes"><Description dt:dt="string">E-Prime Primary Realtime Clock</Description><StartTime><Timestamp dt:dt="int">0</Timestamp><DateUtc dt:dt="string">2018-04-25T23:17:09Z</DateUtc></StartTime><FrequencyChanges><FrequencyChange><Frequency dt:dt="r8">3410097</Frequency><Timestamp dt:dt="r8">118024403687</Timestamp><Current dt:dt="r8">0</Current><DateUtc dt:dt="string">2018-04-25T23:17:09Z</DateUtc></FrequencyChange></FrequencyChanges></Clock>\n	SPADE_Doors_040318-6003-1	75.030	1.0.0.268	695065	1	2060943687	Professional	2.0.10.356	2.0.10.356	04-25-2018		19:17:09	2.0.10.252	1	0	385266	0	0	5000	390266	0	390266	12	385266	0	0	0	385156	390266	385254	0	RunLoseWin	1	1	1	RunList	112718	t	112717	100927	18	2	1		-12	12	251466	2998		0	0	-12	251354	12	250866	600	0	0	254464		0	0	600	-10	254954	0	254954	10	254464	600	0	100		0	0	254354	fix+	254954	254454	1	blockstart	Line.bmp	1100	1100	-23	257054	23	256077	0	0	0	255064		0	0	1000	-10	255954	0	255954	10	255064	1013	0	100		0	0	254954		255954	255054	1	PrizeProc	18	1	18				RunLoseWin	RunBlock1			1	loss
SPADE_Doors_040318	6003	1	18+	<?xml version="1.0"?>\n<Clock xmlns:dt="urn:schemas-microsoft-com:datatypes"><Description dt:dt="string">E-Prime Primary Realtime Clock</Description><StartTime><Timestamp dt:dt="int">0</Timestamp><DateUtc dt:dt="string">2018-04-25T23:17:09Z</DateUtc></StartTime><FrequencyChanges><FrequencyChange><Frequency dt:dt="r8">3410097</Frequency><Timestamp dt:dt="r8">118024403687</Timestamp><Current dt:dt="r8">0</Current><DateUtc dt:dt="string">2018-04-25T23:17:09Z</DateUtc></FrequencyChange></FrequencyChanges></Clock>\n	SPADE_Doors_040318-6003-1	75.030	1.0.0.268	695065	1	2060943687	Professional	2.0.10.356	2.0.10.356	04-25-2018		19:17:09	2.0.10.252	1	0	385266	0	0	5000	390266	0	390266	12	385266	0	0	0	385156	390266	385254	0	RunLoseWin	1	1	1	RunList	112718	t	112717	100927	19	2	1		-2	2	257756	2999		0	0	-3	257654	3	257157	599	0	0	260755		0	0	600	-1	261254	0	261254	1	260755	600	0	100		0	0	260654	fix+	261254	260754	1	winfollowloss	UpArrow.bmp	3200	3200	0	265454	0	262354	0	0	0	261355		0	0	1000	-1	262254	0	262254	1	261355	999	0	100		0	0	261254		262254	261354	1	PrizeProc	19	1	19				RunLoseWin	RunBlock1			2	win
SPADE_Doors_040318	6003	1	18+	<?xml version="1.0"?>\n<Clock xmlns:dt="urn:schemas-microsoft-com:datatypes"><Description dt:dt="string">E-Prime Primary Realtime Clock</Description><StartTime><Timestamp dt:dt="int">0</Timestamp><DateUtc dt:dt="string">2018-04-25T23:17:09Z</DateUtc></StartTime><FrequencyChanges><FrequencyChange><Frequency dt:dt="r8">3410097</Frequency><Timestamp dt:dt="r8">118024403687</Timestamp><Current dt:dt="r8">0</Current><DateUtc dt:dt="string">2018-04-25T23:17:09Z</DateUtc></FrequencyChange></FrequencyChanges></Clock>\n	SPADE_Doors_040318-6003-1	75.030	1.0.0.268	695065	1	2060943687	Professional	2.0.10.356	2.0.10.356	04-25-2018		19:17:09	2.0.10.252	1	0	385266	0	0	5000	390266	0	390266	12	385266	0	0	0	385156	390266	385254	0	RunLoseWin	1	1	1	RunList	112718	t	112717	100927	20	2	1		-12	12	266166	2999		0	0	-13	266054	13	265567	599	0	0	269165		0	0	600	-11	269654	0	269654	11	269165	600	0	100		0	0	269054	fix+	269654	269154	1	lossfollowwin	Line.bmp	5300	5300	-10	275954	10	270764	0	0	0	269765		0	0	1000	-11	270654	0	270654	11	269765	999	0	100		0	0	269654		270654	269754	1	PrizeProc	20	1	20				RunLoseWin	RunBlock1			3	loss
SPADE_Doors_040318	6003	1	18+	<?xml version="1.0"?>\n<Clock xmlns:dt="urn:schemas-microsoft-com:datatypes"><Description dt:dt="string">E-Prime Primary Realtime Clock</Description><StartTime><Timestamp dt:dt="int">0</Timestamp><DateUtc dt:dt="string">2018-04-25T23:17:09Z</DateUtc></StartTime><FrequencyChanges><FrequencyChange><Frequency dt:dt="r8">3410097</Frequency><Timestamp dt:dt="r8">118024403687</Timestamp><Current dt:dt="r8">0</Current><DateUtc dt:dt="string">2018-04-25T23:17:09Z</DateUtc></FrequencyChange></FrequencyChanges></Clock>\n	SPADE_Doors_040318-6003-1	75.030	1.0.0.268	695065	1	2060943687	Professional	2.0.10.356	2.0.10.356	04-25-2018		19:17:09	2.0.10.252	1	0	385266	0	0	5000	390266	0	390266	12	385266	0	0	0	385156	390266	385254	0	RunLoseWin	1	1	1	RunList	112718	t	112717	100927	21	2	1		-1	1	276655	2999		0	0	-2	276554	2	276056	599	0	0	279654		0	0	600	0	280154	0	280154	0	279654	600	0	100		0	0	279554	fix+	280154	279654	1	lossfollowloss	Line.bmp	11600	11600	0	292754	0	281254	0	0	0	280254		0	0	1000	0	281154	0	281154	0	280254	1000	0	100		0	0	280154		281154	280254	1	PrizeProc	21	1	21				RunLoseWin	RunBlock1			4	loss
SPADE_Doors_040318	6003	1	18+	<?xml version="1.0"?>\n<Clock xmlns:dt="urn:schemas-microsoft-com:datatypes"><Description dt:dt="string">E-Prime Primary Realtime Clock</Description><StartTime><Timestamp dt:dt="int">0</Timestamp><DateUtc dt:dt="string">2018-04-25T23:17:09Z</DateUtc></StartTime><FrequencyChanges><FrequencyChange><Frequency dt:dt="r8">3410097</Frequency><Timestamp dt:dt="r8">118024403687</Timestamp><Current dt:dt="r8">0</Current><DateUtc dt:dt="string">2018-04-25T23:17:09Z</DateUtc></FrequencyChange></FrequencyChanges></Clock>\n	SPADE_Doors_040318-6003-1	75.030	1.0.0.268	695065	1	2060943687	Professional	2.0.10.356	2.0.10.356	04-25-2018		19:17:09	2.0.10.252	1	0	385266	0	0	5000	390266	0	390266	12	385266	0	0	0	385156	390266	385254	0	RunLoseWin	1	1	1	RunList	112718	t	112717	100927	22	2	1		-8	8	293462	2999		0	0	-8	293354	8	292862	600	0	0	296461		0	0	600	-7	296954	0	296954	7	296461	600	0	100		0	0	296354	fix+	296954	296454	1	lossfollowloss	Line.bmp	5300	5300	-20	303254	20	298074	0	0	0	297061		0	0	1000	-7	297954	0	297954	7	297061	1013	0	100		0	0	296954		297954	297054	1	PrizeProc	22	1	22				RunLoseWin	RunBlock1			5	loss
SPADE_Doors_040318	6003	1	18+	<?xml version="1.0"?>\n<Clock xmlns:dt="urn:schemas-microsoft-com:datatypes"><Description dt:dt="string">E-Prime Primary Realtime Clock</Description><StartTime><Timestamp dt:dt="int">0</Timestamp><DateUtc dt:dt="string">2018-04-25T23:17:09Z</DateUtc></StartTime><FrequencyChanges><FrequencyChange><Frequency dt:dt="r8">3410097</Frequency><Timestamp dt:dt="r8">118024403687</Timestamp><Current dt:dt="r8">0</Current><DateUtc dt:dt="string">2018-04-25T23:17:09Z</DateUtc></FrequencyChange></FrequencyChanges></Clock>\n	SPADE_Doors_040318-6003-1	75.030	1.0.0.268	695065	1	2060943687	Professional	2.0.10.356	2.0.10.356	04-25-2018		19:17:09	2.0.10.252	1	0	385266	0	0	5000	390266	0	390266	12	385266	0	0	0	385156	390266	385254	0	RunLoseWin	1	1	1	RunList	112718	t	112717	100927	23	2	1		-11	11	303965	2998		0	0	-11	303854	11	303365	600	0	0	306963		0	0	600	-9	307454	0	307454	9	306963	600	0	100		0	0	306854	fix+	307454	306954	1	winfollowloss	UpArrow.bmp	3200	3200	-9	311654	9	308563	0	0	0	307563		0	0	1000	-9	308454	0	308454	9	307563	1000	0	100		0	0	307454		308454	307554	1	PrizeProc	23	1	23				RunLoseWin	RunBlock1			6	win
SPADE_Doors_040318	6003	1	18+	<?xml version="1.0"?>\n<Clock xmlns:dt="urn:schemas-microsoft-com:datatypes"><Description dt:dt="string">E-Prime Primary Realtime Clock</Description><StartTime><Timestamp dt:dt="int">0</Timestamp><DateUtc dt:dt="string">2018-04-25T23:17:09Z</DateUtc></StartTime><FrequencyChanges><FrequencyChange><Frequency dt:dt="r8">3410097</Frequency><Timestamp dt:dt="r8">118024403687</Timestamp><Current dt:dt="r8">0</Current><DateUtc dt:dt="string">2018-04-25T23:17:09Z</DateUtc></FrequencyChange></FrequencyChanges></Clock>\n	SPADE_Doors_040318-6003-1	75.030	1.0.0.268	695065	1	2060943687	Professional	2.0.10.356	2.0.10.356	04-25-2018		19:17:09	2.0.10.252	1	0	385266	0	0	5000	390266	0	390266	12	385266	0	0	0	385156	390266	385254	0	RunLoseWin	1	1	1	RunList	112718	t	112717	100927	24	2	1		-7	7	312361	2999		0	0	-8	312254	8	311762	599	0	0	315360		0	0	600	-6	315854	0	315854	6	315360	600	0	100		0	0	315254	fix+	315854	315354	1	winfollowwin	UpArrow.bmp	1100	1100	-19	317954	19	316973	0	0	0	315960		0	0	1000	-6	316854	0	316854	6	315960	1013	0	100		0	0	315854		316854	315954	1	PrizeProc	24	1	24				RunLoseWin	RunBlock1			7	win
SPADE_Doors_040318	6003	1	18+	<?xml version="1.0"?>\n<Clock xmlns:dt="urn:schemas-microsoft-com:datatypes"><Description dt:dt="string">E-Prime Primary Realtime Clock</Description><StartTime><Timestamp dt:dt="int">0</Timestamp><DateUtc dt:dt="string">2018-04-25T23:17:09Z</DateUtc></StartTime><FrequencyChanges><FrequencyChange><Frequency dt:dt="r8">3410097</Frequency><Timestamp dt:dt="r8">118024403687</Timestamp><Current dt:dt="r8">0</Current><DateUtc dt:dt="string">2018-04-25T23:17:09Z</DateUtc></FrequencyChange></FrequencyChanges></Clock>\n	SPADE_Doors_040318-6003-1	75.030	1.0.0.268	695065	1	2060943687	Professional	2.0.10.356	2.0.10.356	04-25-2018		19:17:09	2.0.10.252	1	0	385266	0	0	5000	390266	0	390266	12	385266	0	0	0	385156	390266	385254	0	RunLoseWin	1	1	1	RunList	112718	t	112717	100927	25	2	1		-11	11	318665	2999		0	0	-12	318554	12	318066	599	0	0	321664		0	0	600	-10	322154	0	322154	10	321664	600	0	100		0	0	321554	fix+	322154	321654	1	lossfollowwin	Line.bmp	3200	3200	-10	326354	10	323264	0	0	0	322264		0	0	1000	-10	323154	0	323154	10	322264	1000	0	100		0	0	322154		323154	322254	1	PrizeProc	25	1	25				RunLoseWin	RunBlock1			8	loss
SPADE_Doors_040318	6003	1	18+	<?xml version="1.0"?>\n<Clock xmlns:dt="urn:schemas-microsoft-com:datatypes"><Description dt:dt="string">E-Prime Primary Realtime Clock</Description><StartTime><Timestamp dt:dt="int">0</Timestamp><DateUtc dt:dt="string">2018-04-25T23:17:09Z</DateUtc></StartTime><FrequencyChanges><FrequencyChange><Frequency dt:dt="r8">3410097</Frequency><Timestamp dt:dt="r8">118024403687</Timestamp><Current dt:dt="r8">0</Current><DateUtc dt:dt="string">2018-04-25T23:17:09Z</DateUtc></FrequencyChange></FrequencyChanges></Clock>\n	SPADE_Doors_040318-6003-1	75.030	1.0.0.268	695065	1	2060943687	Professional	2.0.10.356	2.0.10.356	04-25-2018		19:17:09	2.0.10.252	1	0	385266	0	0	5000	390266	0	390266	12	385266	0	0	0	385156	390266	385254	0	RunLoseWin	1	1	1	RunList	112718	t	112717	100927	26	2	1		-8	8	327062	2999		0	0	-8	326954	8	326462	600	0	0	330061		0	0	600	-7	330554	0	330554	7	330061	600	0	100		0	0	329954	fix+	330554	330054	1	winfollowloss	UpArrow.bmp	3200	3200	-6	334754	6	331660	0	0	0	330661		0	0	1000	-7	331554	0	331554	7	330661	999	0	100		0	0	330554		331554	330654	1	PrizeProc	26	1	26				RunLoseWin	RunBlock1			9	win
SPADE_Doors_040318	6003	1	18+	<?xml version="1.0"?>\n<Clock xmlns:dt="urn:schemas-microsoft-com:datatypes"><Description dt:dt="string">E-Prime Primary Realtime Clock</Description><StartTime><Timestamp dt:dt="int">0</Timestamp><DateUtc dt:dt="string">2018-04-25T23:17:09Z</DateUtc></StartTime><FrequencyChanges><FrequencyChange><Frequency dt:dt="r8">3410097</Frequency><Timestamp dt:dt="r8">118024403687</Timestamp><Current dt:dt="r8">0</Current><DateUtc dt:dt="string">2018-04-25T23:17:09Z</DateUtc></FrequencyChange></FrequencyChanges></Clock>\n	SPADE_Doors_040318-6003-1	75.030	1.0.0.268	695065	1	2060943687	Professional	2.0.10.356	2.0.10.356	04-25-2018		19:17:09	2.0.10.252	1	0	385266	0	0	5000	390266	0	390266	12	385266	0	0	0	385156	390266	385254	0	RunLoseWin	1	1	1	RunList	112718	t	112717	100927	27	2	1		-5	5	335459	2999		0	0	-5	335354	5	334859	600	0	0	338458		0	0	600	-4	338954	0	338954	4	338458	599	0	100		0	0	338354	fix+	338954	338454	1	winfollowwin	UpArrow.bmp	1100	1100	-16	341054	16	340070	0	0	0	339057		0	0	1000	-3	339954	0	339954	3	339057	1013	0	100		0	0	338954		339954	339054	1	PrizeProc	27	1	27				RunLoseWin	RunBlock1			10	win
SPADE_Doors_040318	6003	1	18+	<?xml version="1.0"?>\n<Clock xmlns:dt="urn:schemas-microsoft-com:datatypes"><Description dt:dt="string">E-Prime Primary Realtime Clock</Description><StartTime><Timestamp dt:dt="int">0</Timestamp><DateUtc dt:dt="string">2018-04-25T23:17:09Z</DateUtc></StartTime><FrequencyChanges><FrequencyChange><Frequency dt:dt="r8">3410097</Frequency><Timestamp dt:dt="r8">118024403687</Timestamp><Current dt:dt="r8">0</Current><DateUtc dt:dt="string">2018-04-25T23:17:09Z</DateUtc></FrequencyChange></FrequencyChanges></Clock>\n	SPADE_Doors_040318-6003-1	75.030	1.0.0.268	695065	1	2060943687	Professional	2.0.10.356	2.0.10.356	04-25-2018		19:17:09	2.0.10.252	1	0	385266	0	0	5000	390266	0	390266	12	385266	0	0	0	385156	390266	385254	0	RunLoseWin	1	1	1	RunList	112718	t	112717	100927	28	2	1		-9	9	341763	2999		0	0	-9	341654	9	341163	600	0	0	344762		0	0	600	-8	345254	0	345254	8	344762	600	0	100		0	0	344654	fix+	345254	344754	1	winfollowwin	UpArrow.bmp	1100	1100	-20	347354	20	346374	0	0	0	345362		0	0	1000	-8	346254	0	346254	8	345362	1012	0	100		0	0	345254		346254	345354	1	PrizeProc	28	1	28				RunLoseWin	RunBlock1			11	win
SPADE_Doors_040318	6003	1	18+	<?xml version="1.0"?>\n<Clock xmlns:dt="urn:schemas-microsoft-com:datatypes"><Description dt:dt="string">E-Prime Primary Realtime Clock</Description><StartTime><Timestamp dt:dt="int">0</Timestamp><DateUtc dt:dt="string">2018-04-25T23:17:09Z</DateUtc></StartTime><FrequencyChanges><FrequencyChange><Frequency dt:dt="r8">3410097</Frequency><Timestamp dt:dt="r8">118024403687</Timestamp><Current dt:dt="r8">0</Current><DateUtc dt:dt="string">2018-04-25T23:17:09Z</DateUtc></FrequencyChange></FrequencyChanges></Clock>\n	SPADE_Doors_040318-6003-1	75.030	1.0.0.268	695065	1	2060943687	Professional	2.0.10.356	2.0.10.356	04-25-2018		19:17:09	2.0.10.252	1	0	385266	0	0	5000	390266	0	390266	12	385266	0	0	0	385156	390266	385254	0	RunLoseWin	1	1	1	RunList	112718	t	112717	100927	29	2	1		0	0	348054	3012		0	0	0	347954	0	347454	600	0	0	351066		0	0	600	-12	351554	0	351554	12	351066	600	0	100		0	0	350954	fix+	351554	351054	1	lossfollowwin	Line.bmp	1100	1100	-11	353654	11	352665	0	0	0	351666		0	0	1000	-12	352554	0	352554	12	351666	999	0	100		0	0	351554		352554	351654	1	PrizeProc	29	1	29				RunLoseWin	RunBlock1			12	loss
SPADE_Doors_040318	6003	1	18+	<?xml version="1.0"?>\n<Clock xmlns:dt="urn:schemas-microsoft-com:datatypes"><Description dt:dt="string">E-Prime Primary Realtime Clock</Description><StartTime><Timestamp dt:dt="int">0</Timestamp><DateUtc dt:dt="string">2018-04-25T23:17:09Z</DateUtc></StartTime><FrequencyChanges><FrequencyChange><Frequency dt:dt="r8">3410097</Frequency><Timestamp dt:dt="r8">118024403687</Timestamp><Current dt:dt="r8">0</Current><DateUtc dt:dt="string">2018-04-25T23:17:09Z</DateUtc></FrequencyChange></FrequencyChanges></Clock>\n	SPADE_Doors_040318-6003-1	75.030	1.0.0.268	695065	1	2060943687	Professional	2.0.10.356	2.0.10.356	04-25-2018		19:17:09	2.0.10.252	1	0	385266	0	0	5000	390266	0	390266	12	385266	0	0	0	385156	390266	385254	0	RunLoseWin	1	1	1	RunList	112718	t	112717	100927	30	2	1		-4	4	354358	2999		0	0	-4	354254	4	353758	600	0	0	357357		0	0	600	-3	357854	0	357854	3	357357	600	0	100		0	0	357254	fix+	357854	357354	1	winfollowloss	UpArrow.bmp	5300	5300	-2	364154	2	358956	0	0	0	357957		0	0	1000	-3	358854	0	358854	3	357957	999	0	100		0	0	357854		358854	357954	1	PrizeProc	30	1	30				RunLoseWin	RunBlock1			13	win
SPADE_Doors_040318	6003	1	18+	<?xml version="1.0"?>\n<Clock xmlns:dt="urn:schemas-microsoft-com:datatypes"><Description dt:dt="string">E-Prime Primary Realtime Clock</Description><StartTime><Timestamp dt:dt="int">0</Timestamp><DateUtc dt:dt="string">2018-04-25T23:17:09Z</DateUtc></StartTime><FrequencyChanges><FrequencyChange><Frequency dt:dt="r8">3410097</Frequency><Timestamp dt:dt="r8">118024403687</Timestamp><Current dt:dt="r8">0</Current><DateUtc dt:dt="string">2018-04-25T23:17:09Z</DateUtc></FrequencyChange></FrequencyChanges></Clock>\n	SPADE_Doors_040318-6003-1	75.030	1.0.0.268	695065	1	2060943687	Professional	2.0.10.356	2.0.10.356	04-25-2018		19:17:09	2.0.10.252	1	0	385266	0	0	5000	390266	0	390266	12	385266	0	0	0	385156	390266	385254	0	RunLoseWin	1	1	1	RunList	112718	t	112717	100927	31	2	1		-6	6	364860	2999		0	0	-7	364754	7	364261	599	0	0	367859		0	0	600	-5	368354	0	368354	5	367859	600	0	100		0	0	367754	fix+	368354	367854	1	lossfollowwin	Line.bmp	5300	5300	-5	374654	5	369459	0	0	0	368459		0	0	1000	-5	369354	0	369354	5	368459	1000	0	100		0	0	368354		369354	368454	1	PrizeProc	31	1	31				RunLoseWin	RunBlock1			14	loss
SPADE_Doors_040318	6003	1	18+	<?xml version="1.0"?>\n<Clock xmlns:dt="urn:schemas-microsoft-com:datatypes"><Description dt:dt="string">E-Prime Primary Realtime Clock</Description><StartTime><Timestamp dt:dt="int">0</Timestamp><DateUtc dt:dt="string">2018-04-25T23:17:09Z</DateUtc></StartTime><FrequencyChanges><FrequencyChange><Frequency dt:dt="r8">3410097</Frequency><Timestamp dt:dt="r8">118024403687</Timestamp><Current dt:dt="r8">0</Current><DateUtc dt:dt="string">2018-04-25T23:17:09Z</DateUtc></FrequencyChange></FrequencyChanges></Clock>\n	SPADE_Doors_040318-6003-1	75.030	1.0.0.268	695065	1	2060943687	Professional	2.0.10.356	2.0.10.356	04-25-2018		19:17:09	2.0.10.252	1	0	385266	0	0	5000	390266	0	390266	12	385266	0	0	0	385156	390266	385254	0	RunLoseWin	1	1	1	RunList	112718	t	112717	100927	32	2	1		-9	9	375363	2999		0	0	-9	375254	9	374763	600	0	0	378362		0	0	600	-8	378854	0	378854	8	378362	600	0	100		0	0	378254	fix+	378854	378354	1	lossfollowloss	Line.bmp	5300	5300	-20	385154	20	379974	0	0	0	378962		0	0	1000	-8	379854	0	379854	8	378962	1012	0	100		0	0	378854		379854	378954	1	PrizeProc	32	1	32				RunLoseWin	RunBlock1			15	loss
SPADE_Doors_040318	6003	1	18+	<?xml version="1.0"?>\n<Clock xmlns:dt="urn:schemas-microsoft-com:datatypes"><Description dt:dt="string">E-Prime Primary Realtime Clock</Description><StartTime><Timestamp dt:dt="int">0</Timestamp><DateUtc dt:dt="string">2018-04-25T23:17:09Z</DateUtc></StartTime><FrequencyChanges><FrequencyChange><Frequency dt:dt="r8">3410097</Frequency><Timestamp dt:dt="r8">118024403687</Timestamp><Current dt:dt="r8">0</Current><DateUtc dt:dt="string">2018-04-25T23:17:09Z</DateUtc></FrequencyChange></FrequencyChanges></Clock>\n	SPADE_Doors_040318-6003-1	75.030	1.0.0.268	695065	1	2060943687	Professional	2.0.10.356	2.0.10.356	04-25-2018		19:17:09	2.0.10.252	2	0	685040	0	0	5000	690040	0	690040	11	685040	0	0	0	684931	690040	685029	0	RunWinLose	2	1	2	RunList	412499	t	412499	390267	1	1																																																																								PrizeInstructionProc				1	1	1		RunBlock2	RunWinLose			
SPADE_Doors_040318	6003	1	18+	<?xml version="1.0"?>\n<Clock xmlns:dt="urn:schemas-microsoft-com:datatypes"><Description dt:dt="string">E-Prime Primary Realtime Clock</Description><StartTime><Timestamp dt:dt="int">0</Timestamp><DateUtc dt:dt="string">2018-04-25T23:17:09Z</DateUtc></StartTime><FrequencyChanges><FrequencyChange><Frequency dt:dt="r8">3410097</Frequency><Timestamp dt:dt="r8">118024403687</Timestamp><Current dt:dt="r8">0</Current><DateUtc dt:dt="string">2018-04-25T23:17:09Z</DateUtc></FrequencyChange></FrequencyChanges></Clock>\n	SPADE_Doors_040318-6003-1	75.030	1.0.0.268	695065	1	2060943687	Professional	2.0.10.356	2.0.10.356	04-25-2018		19:17:09	2.0.10.252	2	0	685040	0	0	5000	690040	0	690040	11	685040	0	0	0	684931	690040	685029	0	RunWinLose	2	1	2	RunList	412499	t	412499	390267	2	1	1		-11	11	418133	2998		0	0	-11	418022	11	417533	600	0	0	421131		0	0	600	-9	421622	0	421622	9	421131	600	0	100		0	0	421022	fix+	421622	421122	1	blockstart	UpArrow.bmp	1100	1100	-22	423722	22	422744	0	0	0	421731		0	0	1000	-9	422622	0	422622	9	421731	1013	0	100		0	0	421622		422622	421722	1	PrizeProc				2	1	2		RunBlock2	RunWinLose		16	win
SPADE_Doors_040318	6003	1	18+	<?xml version="1.0"?>\n<Clock xmlns:dt="urn:schemas-microsoft-com:datatypes"><Description dt:dt="string">E-Prime Primary Realtime Clock</Description><StartTime><Timestamp dt:dt="int">0</Timestamp><DateUtc dt:dt="string">2018-04-25T23:17:09Z</DateUtc></StartTime><FrequencyChanges><FrequencyChange><Frequency dt:dt="r8">3410097</Frequency><Timestamp dt:dt="r8">118024403687</Timestamp><Current dt:dt="r8">0</Current><DateUtc dt:dt="string">2018-04-25T23:17:09Z</DateUtc></FrequencyChange></FrequencyChanges></Clock>\n	SPADE_Doors_040318-6003-1	75.030	1.0.0.268	695065	1	2060943687	Professional	2.0.10.356	2.0.10.356	04-25-2018		19:17:09	2.0.10.252	2	0	685040	0	0	5000	690040	0	690040	11	685040	0	0	0	684931	690040	685029	0	RunWinLose	2	1	2	RunList	412499	t	412499	390267	3	1	1		-1	1	424423	2999		0	0	-2	424322	2	423824	599	0	0	427422		0	0	600	0	427922	0	427922	0	427422	600	0	100		0	0	427322	fix+	427922	427422	1	lossfollowwin	Line.bmp	3200	3200	-13	432122	13	429035	0	0	0	428022		0	0	1000	0	428922	0	428922	0	428022	1013	0	100		0	0	427922		428922	428022	1	PrizeProc				3	1	3		RunBlock2	RunWinLose		17	loss
SPADE_Doors_040318	6003	1	18+	<?xml version="1.0"?>\n<Clock xmlns:dt="urn:schemas-microsoft-com:datatypes"><Description dt:dt="string">E-Prime Primary Realtime Clock</Description><StartTime><Timestamp dt:dt="int">0</Timestamp><DateUtc dt:dt="string">2018-04-25T23:17:09Z</DateUtc></StartTime><FrequencyChanges><FrequencyChange><Frequency dt:dt="r8">3410097</Frequency><Timestamp dt:dt="r8">118024403687</Timestamp><Current dt:dt="r8">0</Current><DateUtc dt:dt="string">2018-04-25T23:17:09Z</DateUtc></FrequencyChange></FrequencyChanges></Clock>\n	SPADE_Doors_040318-6003-1	75.030	1.0.0.268	695065	1	2060943687	Professional	2.0.10.356	2.0.10.356	04-25-2018		19:17:09	2.0.10.252	2	0	685040	0	0	5000	690040	0	690040	11	685040	0	0	0	684931	690040	685029	0	RunWinLose	2	1	2	RunList	412499	t	412499	390267	4	1	1		-11	11	432833	2999		0	0	-12	432722	12	432234	599	0	0	435832		0	0	600	-10	436322	0	436322	10	435832	600	0	100		0	0	435722	fix+	436322	435822	1	winfollowloss	UpArrow.bmp	5300	5300	-23	442622	23	437445	0	0	0	436432		0	0	1000	-10	437322	0	437322	10	436432	1013	0	100		0	0	436322		437322	436422	1	PrizeProc				4	1	4		RunBlock2	RunWinLose		18	win
SPADE_Doors_040318	6003	1	18+	<?xml version="1.0"?>\n<Clock xmlns:dt="urn:schemas-microsoft-com:datatypes"><Description dt:dt="string">E-Prime Primary Realtime Clock</Description><StartTime><Timestamp dt:dt="int">0</Timestamp><DateUtc dt:dt="string">2018-04-25T23:17:09Z</DateUtc></StartTime><FrequencyChanges><FrequencyChange><Frequency dt:dt="r8">3410097</Frequency><Timestamp dt:dt="r8">118024403687</Timestamp><Current dt:dt="r8">0</Current><DateUtc dt:dt="string">2018-04-25T23:17:09Z</DateUtc></FrequencyChange></FrequencyChanges></Clock>\n	SPADE_Doors_040318-6003-1	75.030	1.0.0.268	695065	1	2060943687	Professional	2.0.10.356	2.0.10.356	04-25-2018		19:17:09	2.0.10.252	2	0	685040	0	0	5000	690040	0	690040	11	685040	0	0	0	684931	690040	685029	0	RunWinLose	2	1	2	RunList	412499	t	412499	390267	5	1	1		-1	1	443323	3012		0	0	-1	443222	1	442723	600	0	0	446335		0	0	600	-13	446822	0	446822	13	446335	600	0	100		0	0	446222	fix+	446822	446322	1	winfollowwin	UpArrow.bmp	5300	5300	-25	453122	25	447947	0	0	0	446935		0	0	1000	-13	447822	0	447822	13	446935	1012	0	100		0	0	446822		447822	446922	1	PrizeProc				5	1	5		RunBlock2	RunWinLose		19	win
SPADE_Doors_040318	6003	1	18+	<?xml version="1.0"?>\n<Clock xmlns:dt="urn:schemas-microsoft-com:datatypes"><Description dt:dt="string">E-Prime Primary Realtime Clock</Description><StartTime><Timestamp dt:dt="int">0</Timestamp><DateUtc dt:dt="string">2018-04-25T23:17:09Z</DateUtc></StartTime><FrequencyChanges><FrequencyChange><Frequency dt:dt="r8">3410097</Frequency><Timestamp dt:dt="r8">118024403687</Timestamp><Current dt:dt="r8">0</Current><DateUtc dt:dt="string">2018-04-25T23:17:09Z</DateUtc></FrequencyChange></FrequencyChanges></Clock>\n	SPADE_Doors_040318-6003-1	75.030	1.0.0.268	695065	1	2060943687	Professional	2.0.10.356	2.0.10.356	04-25-2018		19:17:09	2.0.10.252	2	0	685040	0	0	5000	690040	0	690040	11	685040	0	0	0	684931	690040	685029	0	RunWinLose	2	1	2	RunList	412499	t	412499	390267	6	1	1		-3	3	453825	2999		0	0	-3	453722	3	453225	600	0	0	456824		0	0	600	-2	457322	0	457322	2	456824	600	0	100		0	0	456722	fix+	457322	456822	1	winfollowwin	UpArrow.bmp	5300	5300	-1	463622	1	458423	0	0	0	457424		0	0	1000	-2	458322	0	458322	2	457424	999	0	100		0	0	457322		458322	457422	1	PrizeProc				6	1	6		RunBlock2	RunWinLose		20	win
SPADE_Doors_040318	6003	1	18+	<?xml version="1.0"?>\n<Clock xmlns:dt="urn:schemas-microsoft-com:datatypes"><Description dt:dt="string">E-Prime Primary Realtime Clock</Description><StartTime><Timestamp dt:dt="int">0</Timestamp><DateUtc dt:dt="string">2018-04-25T23:17:09Z</DateUtc></StartTime><FrequencyChanges><FrequencyChange><Frequency dt:dt="r8">3410097</Frequency><Timestamp dt:dt="r8">118024403687</Timestamp><Current dt:dt="r8">0</Current><DateUtc dt:dt="string">2018-04-25T23:17:09Z</DateUtc></FrequencyChange></FrequencyChanges></Clock>\n	SPADE_Doors_040318-6003-1	75.030	1.0.0.268	695065	1	2060943687	Professional	2.0.10.356	2.0.10.356	04-25-2018		19:17:09	2.0.10.252	2	0	685040	0	0	5000	690040	0	690040	11	685040	0	0	0	684931	690040	685029	0	RunWinLose	2	1	2	RunList	412499	t	412499	390267	7	1	1		-6	6	464328	2998		0	0	-6	464222	6	463728	600	0	0	467326		0	0	600	-4	467822	0	467822	4	467326	600	0	100		0	0	467222	fix+	467822	467322	1	winfollowwin	UpArrow.bmp	3200	3200	-4	472022	4	468926	0	0	0	467926		0	0	1000	-4	468822	0	468822	4	467926	1000	0	100		0	0	467822		468822	467922	1	PrizeProc				7	1	7		RunBlock2	RunWinLose		21	win
SPADE_Doors_040318	6003	1	18+	<?xml version="1.0"?>\n<Clock xmlns:dt="urn:schemas-microsoft-com:datatypes"><Description dt:dt="string">E-Prime Primary Realtime Clock</Description><StartTime><Timestamp dt:dt="int">0</Timestamp><DateUtc dt:dt="string">2018-04-25T23:17:09Z</DateUtc></StartTime><FrequencyChanges><FrequencyChange><Frequency dt:dt="r8">3410097</Frequency><Timestamp dt:dt="r8">118024403687</Timestamp><Current dt:dt="r8">0</Current><DateUtc dt:dt="string">2018-04-25T23:17:09Z</DateUtc></FrequencyChange></FrequencyChanges></Clock>\n	SPADE_Doors_040318-6003-1	75.030	1.0.0.268	695065	1	2060943687	Professional	2.0.10.356	2.0.10.356	04-25-2018		19:17:09	2.0.10.252	2	0	685040	0	0	5000	690040	0	690040	11	685040	0	0	0	684931	690040	685029	0	RunWinLose	2	1	2	RunList	412499	t	412499	390267	8	1	1		-2	2	472724	2999		0	0	-2	472622	2	472124	600	0	0	475723		0	0	600	-1	476222	0	476222	1	475723	600	0	100		0	0	475622	fix+	476222	475722	1	lossfollowwin	Line.bmp	1100	1100	0	478322	0	477322	0	0	0	476323		0	0	1000	-1	477222	0	477222	1	476323	999	0	100		0	0	476222		477222	476322	1	PrizeProc				8	1	8		RunBlock2	RunWinLose		22	loss
SPADE_Doors_040318	6003	1	18+	<?xml version="1.0"?>\n<Clock xmlns:dt="urn:schemas-microsoft-com:datatypes"><Description dt:dt="string">E-Prime Primary Realtime Clock</Description><StartTime><Timestamp dt:dt="int">0</Timestamp><DateUtc dt:dt="string">2018-04-25T23:17:09Z</DateUtc></StartTime><FrequencyChanges><FrequencyChange><Frequency dt:dt="r8">3410097</Frequency><Timestamp dt:dt="r8">118024403687</Timestamp><Current dt:dt="r8">0</Current><DateUtc dt:dt="string">2018-04-25T23:17:09Z</DateUtc></FrequencyChange></FrequencyChanges></Clock>\n	SPADE_Doors_040318-6003-1	75.030	1.0.0.268	695065	1	2060943687	Professional	2.0.10.356	2.0.10.356	04-25-2018		19:17:09	2.0.10.252	2	0	685040	0	0	5000	690040	0	690040	11	685040	0	0	0	684931	690040	685029	0	RunWinLose	2	1	2	RunList	412499	t	412499	390267	9	1	1		-6	6	479028	2999		0	0	-7	478922	7	478429	599	0	0	482027		0	0	600	-5	482522	0	482522	5	482027	600	0	100		0	0	481922	fix+	482522	482022	1	lossfollowloss	Line.bmp	3200	3200	-18	486722	18	483640	0	0	0	482627		0	0	1000	-5	483522	0	483522	5	482627	1013	0	100		0	0	482522		483522	482622	1	PrizeProc				9	1	9		RunBlock2	RunWinLose		23	loss
SPADE_Doors_040318	6003	1	18+	<?xml version="1.0"?>\n<Clock xmlns:dt="urn:schemas-microsoft-com:datatypes"><Description dt:dt="string">E-Prime Primary Realtime Clock</Description><StartTime><Timestamp dt:dt="int">0</Timestamp><DateUtc dt:dt="string">2018-04-25T23:17:09Z</DateUtc></StartTime><FrequencyChanges><FrequencyChange><Frequency dt:dt="r8">3410097</Frequency><Timestamp dt:dt="r8">118024403687</Timestamp><Current dt:dt="r8">0</Current><DateUtc dt:dt="string">2018-04-25T23:17:09Z</DateUtc></FrequencyChange></FrequencyChanges></Clock>\n	SPADE_Doors_040318-6003-1	75.030	1.0.0.268	695065	1	2060943687	Professional	2.0.10.356	2.0.10.356	04-25-2018		19:17:09	2.0.10.252	2	0	685040	0	0	5000	690040	0	690040	11	685040	0	0	0	684931	690040	685029	0	RunWinLose	2	1	2	RunList	412499	t	412499	390267	10	1	1		-3	3	487425	2999		0	0	-3	487322	3	486825	600	0	0	490424		0	0	600	-2	490922	0	490922	2	490424	600	0	100		0	0	490322	fix+	490922	490422	1	winfollowloss	UpArrow.bmp	3200	3200	-1	495122	1	492023	0	0	0	491024		0	0	1000	-2	491922	0	491922	2	491024	999	0	100		0	0	490922		491922	491022	1	PrizeProc				10	1	10		RunBlock2	RunWinLose		24	win
SPADE_Doors_040318	6003	1	18+	<?xml version="1.0"?>\n<Clock xmlns:dt="urn:schemas-microsoft-com:datatypes"><Description dt:dt="string">E-Prime Primary Realtime Clock</Description><StartTime><Timestamp dt:dt="int">0</Timestamp><DateUtc dt:dt="string">2018-04-25T23:17:09Z</DateUtc></StartTime><FrequencyChanges><FrequencyChange><Frequency dt:dt="r8">3410097</Frequency><Timestamp dt:dt="r8">118024403687</Timestamp><Current dt:dt="r8">0</Current><DateUtc dt:dt="string">2018-04-25T23:17:09Z</DateUtc></FrequencyChange></FrequencyChanges></Clock>\n	SPADE_Doors_040318-6003-1	75.030	1.0.0.268	695065	1	2060943687	Professional	2.0.10.356	2.0.10.356	04-25-2018		19:17:09	2.0.10.252	2	0	685040	0	0	5000	690040	0	690040	11	685040	0	0	0	684931	690040	685029	0	RunWinLose	2	1	2	RunList	412499	t	412499	390267	11	1	1		0	0	495822	3012		0	0	0	495722	0	495222	600	0	0	498834		0	0	600	-12	499322	0	499322	12	498834	600	0	100		0	0	498722	fix+	499322	498822	1	lossfollowwin	Line.bmp	1100	1100	-11	501422	11	500433	0	0	0	499434		0	0	1000	-12	500322	0	500322	12	499434	999	0	100		0	0	499322		500322	499422	1	PrizeProc				11	1	11		RunBlock2	RunWinLose		25	loss
SPADE_Doors_040318	6003	1	18+	<?xml version="1.0"?>\n<Clock xmlns:dt="urn:schemas-microsoft-com:datatypes"><Description dt:dt="string">E-Prime Primary Realtime Clock</Description><StartTime><Timestamp dt:dt="int">0</Timestamp><DateUtc dt:dt="string">2018-04-25T23:17:09Z</DateUtc></StartTime><FrequencyChanges><FrequencyChange><Frequency dt:dt="r8">3410097</Frequency><Timestamp dt:dt="r8">118024403687</Timestamp><Current dt:dt="r8">0</Current><DateUtc dt:dt="string">2018-04-25T23:17:09Z</DateUtc></FrequencyChange></FrequencyChanges></Clock>\n	SPADE_Doors_040318-6003-1	75.030	1.0.0.268	695065	1	2060943687	Professional	2.0.10.356	2.0.10.356	04-25-2018		19:17:09	2.0.10.252	2	0	685040	0	0	5000	690040	0	690040	11	685040	0	0	0	684931	690040	685029	0	RunWinLose	2	1	2	RunList	412499	t	412499	390267	12	1	1		-4	4	502126	2999		0	0	-4	502022	4	501526	600	0	0	505125		0	0	600	-3	505622	0	505622	3	505125	600	0	100		0	0	505022	fix+	505622	505122	1	lossfollowloss	Line.bmp	1100	1100	-2	507722	2	506724	0	0	0	505725		0	0	1000	-3	506622	0	506622	3	505725	999	0	100		0	0	505622		506622	505722	1	PrizeProc				12	1	12		RunBlock2	RunWinLose		26	loss
SPADE_Doors_040318	6003	1	18+	<?xml version="1.0"?>\n<Clock xmlns:dt="urn:schemas-microsoft-com:datatypes"><Description dt:dt="string">E-Prime Primary Realtime Clock</Description><StartTime><Timestamp dt:dt="int">0</Timestamp><DateUtc dt:dt="string">2018-04-25T23:17:09Z</DateUtc></StartTime><FrequencyChanges><FrequencyChange><Frequency dt:dt="r8">3410097</Frequency><Timestamp dt:dt="r8">118024403687</Timestamp><Current dt:dt="r8">0</Current><DateUtc dt:dt="string">2018-04-25T23:17:09Z</DateUtc></FrequencyChange></FrequencyChanges></Clock>\n	SPADE_Doors_040318-6003-1	75.030	1.0.0.268	695065	1	2060943687	Professional	2.0.10.356	2.0.10.356	04-25-2018		19:17:09	2.0.10.252	2	0	685040	0	0	5000	690040	0	690040	11	685040	0	0	0	684931	690040	685029	0	RunWinLose	2	1	2	RunList	412499	t	412499	390267	13	1	1		-8	8	508430	2999		0	0	-8	508322	8	507830	600	0	0	511429		0	0	600	-7	511922	0	511922	7	511429	600	0	100		0	0	511322	fix+	511922	511422	1	lossfollowloss	Line.bmp	1100	1100	-6	514022	6	513028	0	0	0	512029		0	0	1000	-7	512922	0	512922	7	512029	999	0	100		0	0	511922		512922	512022	1	PrizeProc				13	1	13		RunBlock2	RunWinLose		27	loss
SPADE_Doors_040318	6003	1	18+	<?xml version="1.0"?>\n<Clock xmlns:dt="urn:schemas-microsoft-com:datatypes"><Description dt:dt="string">E-Prime Primary Realtime Clock</Description><StartTime><Timestamp dt:dt="int">0</Timestamp><DateUtc dt:dt="string">2018-04-25T23:17:09Z</DateUtc></StartTime><FrequencyChanges><FrequencyChange><Frequency dt:dt="r8">3410097</Frequency><Timestamp dt:dt="r8">118024403687</Timestamp><Current dt:dt="r8">0</Current><DateUtc dt:dt="string">2018-04-25T23:17:09Z</DateUtc></FrequencyChange></FrequencyChanges></Clock>\n	SPADE_Doors_040318-6003-1	75.030	1.0.0.268	695065	1	2060943687	Professional	2.0.10.356	2.0.10.356	04-25-2018		19:17:09	2.0.10.252	2	0	685040	0	0	5000	690040	0	690040	11	685040	0	0	0	684931	690040	685029	0	RunWinLose	2	1	2	RunList	412499	t	412499	390267	14	1	1		-12	12	514734	2999		0	0	-12	514622	12	514134	600	0	0	517733		0	0	600	-11	518222	0	518222	11	517733	600	0	100		0	0	517622	fix+	518222	517722	1	lossfollowloss	Line.bmp	5300	5300	-24	524522	24	519346	0	0	0	518333		0	0	1000	-11	519222	0	519222	11	518333	1013	0	100		0	0	518222		519222	518322	1	PrizeProc				14	1	14		RunBlock2	RunWinLose		28	loss
SPADE_Doors_040318	6003	1	18+	<?xml version="1.0"?>\n<Clock xmlns:dt="urn:schemas-microsoft-com:datatypes"><Description dt:dt="string">E-Prime Primary Realtime Clock</Description><StartTime><Timestamp dt:dt="int">0</Timestamp><DateUtc dt:dt="string">2018-04-25T23:17:09Z</DateUtc></StartTime><FrequencyChanges><FrequencyChange><Frequency dt:dt="r8">3410097</Frequency><Timestamp dt:dt="r8">118024403687</Timestamp><Current dt:dt="r8">0</Current><DateUtc dt:dt="string">2018-04-25T23:17:09Z</DateUtc></FrequencyChange></FrequencyChanges></Clock>\n	SPADE_Doors_040318-6003-1	75.030	1.0.0.268	695065	1	2060943687	Professional	2.0.10.356	2.0.10.356	04-25-2018		19:17:09	2.0.10.252	2	0	685040	0	0	5000	690040	0	690040	11	685040	0	0	0	684931	690040	685029	0	RunWinLose	2	1	2	RunList	412499	t	412499	390267	15	1	1		-1	1	525223	2999		0	0	-2	525122	2	524624	599	0	0	528222		0	0	600	0	528722	0	528722	0	528222	600	0	100		0	0	528122	fix+	528722	528222	1	winfollowloss	UpArrow.bmp	5300	5300	0	535022	0	529822	0	0	0	528822		0	0	1000	0	529722	0	529722	0	528822	1000	0	100		0	0	528722		529722	528822	1	PrizeProc				15	1	15		RunBlock2	RunWinLose		29	win
SPADE_Doors_040318	6003	1	18+	<?xml version="1.0"?>\n<Clock xmlns:dt="urn:schemas-microsoft-com:datatypes"><Description dt:dt="string">E-Prime Primary Realtime Clock</Description><StartTime><Timestamp dt:dt="int">0</Timestamp><DateUtc dt:dt="string">2018-04-25T23:17:09Z</DateUtc></StartTime><FrequencyChanges><FrequencyChange><Frequency dt:dt="r8">3410097</Frequency><Timestamp dt:dt="r8">118024403687</Timestamp><Current dt:dt="r8">0</Current><DateUtc dt:dt="string">2018-04-25T23:17:09Z</DateUtc></FrequencyChange></FrequencyChanges></Clock>\n	SPADE_Doors_040318-6003-1	75.030	1.0.0.268	695065	1	2060943687	Professional	2.0.10.356	2.0.10.356	04-25-2018		19:17:09	2.0.10.252	2	0	685040	0	0	5000	690040	0	690040	11	685040	0	0	0	684931	690040	685029	0	RunWinLose	2	1	2	RunList	412499	t	412499	390267	16	1	1		-4	4	535726	2999		0	0	-4	535622	4	535126	600	0	0	538725		0	0	600	-3	539222	0	539222	3	538725	599	0	100		0	0	538622	fix+	539222	538722	1	winfollowwin	UpArrow.bmp	5300	5300	-2	545522	2	540324	0	0	0	539324		0	0	1000	-2	540222	0	540222	2	539324	1000	0	100		0	0	539222		540222	539322	1	PrizeProc				16	1	16		RunBlock2	RunWinLose		30	win
SPADE_Doors_040318	6003	1	18+	<?xml version="1.0"?>\n<Clock xmlns:dt="urn:schemas-microsoft-com:datatypes"><Description dt:dt="string">E-Prime Primary Realtime Clock</Description><StartTime><Timestamp dt:dt="int">0</Timestamp><DateUtc dt:dt="string">2018-04-25T23:17:09Z</DateUtc></StartTime><FrequencyChanges><FrequencyChange><Frequency dt:dt="r8">3410097</Frequency><Timestamp dt:dt="r8">118024403687</Timestamp><Current dt:dt="r8">0</Current><DateUtc dt:dt="string">2018-04-25T23:17:09Z</DateUtc></FrequencyChange></FrequencyChanges></Clock>\n	SPADE_Doors_040318-6003-1	75.030	1.0.0.268	695065	1	2060943687	Professional	2.0.10.356	2.0.10.356	04-25-2018		19:17:09	2.0.10.252	2	0	685040	0	0	5000	690040	0	690040	11	685040	0	0	0	684931	690040	685029	0	RunWinLose	2	1	2	RunList	412499	t	412499	390267	17	2																																																																								LoseInstructionProc				17	1	17		RunBlock2	RunWinLose			
SPADE_Doors_040318	6003	1	18+	<?xml version="1.0"?>\n<Clock xmlns:dt="urn:schemas-microsoft-com:datatypes"><Description dt:dt="string">E-Prime Primary Realtime Clock</Description><StartTime><Timestamp dt:dt="int">0</Timestamp><DateUtc dt:dt="string">2018-04-25T23:17:09Z</DateUtc></StartTime><FrequencyChanges><FrequencyChange><Frequency dt:dt="r8">3410097</Frequency><Timestamp dt:dt="r8">118024403687</Timestamp><Current dt:dt="r8">0</Current><DateUtc dt:dt="string">2018-04-25T23:17:09Z</DateUtc></FrequencyChange></FrequencyChanges></Clock>\n	SPADE_Doors_040318-6003-1	75.030	1.0.0.268	695065	1	2060943687	Professional	2.0.10.356	2.0.10.356	04-25-2018		19:17:09	2.0.10.252	2	0	685040	0	0	5000	690040	0	690040	11	685040	0	0	0	684931	690040	685029	0	RunWinLose	2	1	2	RunList	412499	t	412499	390267	18	2	1		-11	11	551240	2999		0	0	-11	551129	11	550640	600	0	0	554239		0	0	600	-10	554729	0	554729	10	554239	599	0	100		0	0	554129	fix+	554729	554229	1	blockstart	DownArrow.bmp	3200	3200	-22	558929	22	555851	0	0	0	554838		0	0	1000	-9	555729	0	555729	9	554838	1013	0	100		0	0	554729		555729	554829	1	LoseProc				18	1	18		RunBlock2	RunWinLose	16		win
SPADE_Doors_040318	6003	1	18+	<?xml version="1.0"?>\n<Clock xmlns:dt="urn:schemas-microsoft-com:datatypes"><Description dt:dt="string">E-Prime Primary Realtime Clock</Description><StartTime><Timestamp dt:dt="int">0</Timestamp><DateUtc dt:dt="string">2018-04-25T23:17:09Z</DateUtc></StartTime><FrequencyChanges><FrequencyChange><Frequency dt:dt="r8">3410097</Frequency><Timestamp dt:dt="r8">118024403687</Timestamp><Current dt:dt="r8">0</Current><DateUtc dt:dt="string">2018-04-25T23:17:09Z</DateUtc></FrequencyChange></FrequencyChanges></Clock>\n	SPADE_Doors_040318-6003-1	75.030	1.0.0.268	695065	1	2060943687	Professional	2.0.10.356	2.0.10.356	04-25-2018		19:17:09	2.0.10.252	2	0	685040	0	0	5000	690040	0	690040	11	685040	0	0	0	684931	690040	685029	0	RunWinLose	2	1	2	RunList	412499	t	412499	390267	19	2	1		-7	7	559636	2999		0	0	-8	559529	8	559037	599	0	0	562635		0	0	600	-6	563129	0	563129	6	562635	600	0	100		0	0	562529	fix+	563129	562629	1	lossfollowwin	Line.bmp	3200	3200	-6	567329	6	564235	0	0	0	563235		0	0	1000	-6	564129	0	564129	6	563235	1000	0	100		0	0	563129		564129	563229	1	LoseProc				19	1	19		RunBlock2	RunWinLose	17		loss
SPADE_Doors_040318	6003	1	18+	<?xml version="1.0"?>\n<Clock xmlns:dt="urn:schemas-microsoft-com:datatypes"><Description dt:dt="string">E-Prime Primary Realtime Clock</Description><StartTime><Timestamp dt:dt="int">0</Timestamp><DateUtc dt:dt="string">2018-04-25T23:17:09Z</DateUtc></StartTime><FrequencyChanges><FrequencyChange><Frequency dt:dt="r8">3410097</Frequency><Timestamp dt:dt="r8">118024403687</Timestamp><Current dt:dt="r8">0</Current><DateUtc dt:dt="string">2018-04-25T23:17:09Z</DateUtc></FrequencyChange></FrequencyChanges></Clock>\n	SPADE_Doors_040318-6003-1	75.030	1.0.0.268	695065	1	2060943687	Professional	2.0.10.356	2.0.10.356	04-25-2018		19:17:09	2.0.10.252	2	0	685040	0	0	5000	690040	0	690040	11	685040	0	0	0	684931	690040	685029	0	RunWinLose	2	1	2	RunList	412499	t	412499	390267	20	2	1		-4	4	568033	2999		0	0	-4	567929	4	567433	600	0	0	571032		0	0	600	-3	571529	0	571529	3	571032	600	0	100		0	0	570929	fix+	571529	571029	1	winfollowloss	DownArrow.bmp	3200	3200	-2	575729	2	572631	0	0	0	571632		0	0	1000	-3	572529	0	572529	3	571632	999	0	100		0	0	571529		572529	571629	1	LoseProc				20	1	20		RunBlock2	RunWinLose	18		win
SPADE_Doors_040318	6003	1	18+	<?xml version="1.0"?>\n<Clock xmlns:dt="urn:schemas-microsoft-com:datatypes"><Description dt:dt="string">E-Prime Primary Realtime Clock</Description><StartTime><Timestamp dt:dt="int">0</Timestamp><DateUtc dt:dt="string">2018-04-25T23:17:09Z</DateUtc></StartTime><FrequencyChanges><FrequencyChange><Frequency dt:dt="r8">3410097</Frequency><Timestamp dt:dt="r8">118024403687</Timestamp><Current dt:dt="r8">0</Current><DateUtc dt:dt="string">2018-04-25T23:17:09Z</DateUtc></FrequencyChange></FrequencyChanges></Clock>\n	SPADE_Doors_040318-6003-1	75.030	1.0.0.268	695065	1	2060943687	Professional	2.0.10.356	2.0.10.356	04-25-2018		19:17:09	2.0.10.252	2	0	685040	0	0	5000	690040	0	690040	11	685040	0	0	0	684931	690040	685029	0	RunWinLose	2	1	2	RunList	412499	t	412499	390267	21	2	1		-1	1	576430	2999		0	0	-1	576329	1	575830	600	0	0	579429		0	0	600	0	579929	0	579929	0	579429	613	0	100		0	0	579329	fix+	579929	579429	1	winfollowwin	DownArrow.bmp	11600	11600	-26	592529	26	581055	0	0	0	580042		0	0	1000	-13	580929	0	580929	13	580042	1013	0	100		0	0	579929		580929	580029	1	LoseProc				21	1	21		RunBlock2	RunWinLose	19		win
SPADE_Doors_040318	6003	1	18+	<?xml version="1.0"?>\n<Clock xmlns:dt="urn:schemas-microsoft-com:datatypes"><Description dt:dt="string">E-Prime Primary Realtime Clock</Description><StartTime><Timestamp dt:dt="int">0</Timestamp><DateUtc dt:dt="string">2018-04-25T23:17:09Z</DateUtc></StartTime><FrequencyChanges><FrequencyChange><Frequency dt:dt="r8">3410097</Frequency><Timestamp dt:dt="r8">118024403687</Timestamp><Current dt:dt="r8">0</Current><DateUtc dt:dt="string">2018-04-25T23:17:09Z</DateUtc></FrequencyChange></FrequencyChanges></Clock>\n	SPADE_Doors_040318-6003-1	75.030	1.0.0.268	695065	1	2060943687	Professional	2.0.10.356	2.0.10.356	04-25-2018		19:17:09	2.0.10.252	2	0	685040	0	0	5000	690040	0	690040	11	685040	0	0	0	684931	690040	685029	0	RunWinLose	2	1	2	RunList	412499	t	412499	390267	22	2	1		-7	7	593236	2999		0	0	-8	593129	8	592637	599	0	0	596235		0	0	600	-6	596729	0	596729	6	596235	600	0	100		0	0	596129	fix+	596729	596229	1	winfollowwin	DownArrow.bmp	5300	5300	-19	603029	19	597848	0	0	0	596835		0	0	1000	-6	597729	0	597729	6	596835	1013	0	100		0	0	596729		597729	596829	1	LoseProc				22	1	22		RunBlock2	RunWinLose	20		win
SPADE_Doors_040318	6003	1	18+	<?xml version="1.0"?>\n<Clock xmlns:dt="urn:schemas-microsoft-com:datatypes"><Description dt:dt="string">E-Prime Primary Realtime Clock</Description><StartTime><Timestamp dt:dt="int">0</Timestamp><DateUtc dt:dt="string">2018-04-25T23:17:09Z</DateUtc></StartTime><FrequencyChanges><FrequencyChange><Frequency dt:dt="r8">3410097</Frequency><Timestamp dt:dt="r8">118024403687</Timestamp><Current dt:dt="r8">0</Current><DateUtc dt:dt="string">2018-04-25T23:17:09Z</DateUtc></FrequencyChange></FrequencyChanges></Clock>\n	SPADE_Doors_040318-6003-1	75.030	1.0.0.268	695065	1	2060943687	Professional	2.0.10.356	2.0.10.356	04-25-2018		19:17:09	2.0.10.252	2	0	685040	0	0	5000	690040	0	690040	11	685040	0	0	0	684931	690040	685029	0	RunWinLose	2	1	2	RunList	412499	t	412499	390267	23	2	1		-10	10	603739	2999		0	0	-10	603629	10	603139	600	0	0	606738		0	0	600	-9	607229	0	607229	9	606738	599	0	100		0	0	606629	fix+	607229	606729	1	winfollowwin	DownArrow.bmp	5300	5300	-8	613529	8	608337	0	0	0	607337		0	0	1000	-8	608229	0	608229	8	607337	1000	0	100		0	0	607229		608229	607329	1	LoseProc				23	1	23		RunBlock2	RunWinLose	21		win
SPADE_Doors_040318	6003	1	18+	<?xml version="1.0"?>\n<Clock xmlns:dt="urn:schemas-microsoft-com:datatypes"><Description dt:dt="string">E-Prime Primary Realtime Clock</Description><StartTime><Timestamp dt:dt="int">0</Timestamp><DateUtc dt:dt="string">2018-04-25T23:17:09Z</DateUtc></StartTime><FrequencyChanges><FrequencyChange><Frequency dt:dt="r8">3410097</Frequency><Timestamp dt:dt="r8">118024403687</Timestamp><Current dt:dt="r8">0</Current><DateUtc dt:dt="string">2018-04-25T23:17:09Z</DateUtc></FrequencyChange></FrequencyChanges></Clock>\n	SPADE_Doors_040318-6003-1	75.030	1.0.0.268	695065	1	2060943687	Professional	2.0.10.356	2.0.10.356	04-25-2018		19:17:09	2.0.10.252	2	0	685040	0	0	5000	690040	0	690040	11	685040	0	0	0	684931	690040	685029	0	RunWinLose	2	1	2	RunList	412499	t	412499	390267	24	2	1		-12	12	614241	2999		0	0	-13	614129	13	613642	599	0	0	617240		0	0	600	-11	617729	0	617729	11	617240	600	0	100		0	0	617129	fix+	617729	617229	1	lossfollowwin	Line.bmp	3200	3200	-11	621929	11	618840	0	0	0	617840		0	0	1000	-11	618729	0	618729	11	617840	1000	0	100		0	0	617729		618729	617829	1	LoseProc				24	1	24		RunBlock2	RunWinLose	22		loss
SPADE_Doors_040318	6003	1	18+	<?xml version="1.0"?>\n<Clock xmlns:dt="urn:schemas-microsoft-com:datatypes"><Description dt:dt="string">E-Prime Primary Realtime Clock</Description><StartTime><Timestamp dt:dt="int">0</Timestamp><DateUtc dt:dt="string">2018-04-25T23:17:09Z</DateUtc></StartTime><FrequencyChanges><FrequencyChange><Frequency dt:dt="r8">3410097</Frequency><Timestamp dt:dt="r8">118024403687</Timestamp><Current dt:dt="r8">0</Current><DateUtc dt:dt="string">2018-04-25T23:17:09Z</DateUtc></FrequencyChange></FrequencyChanges></Clock>\n	SPADE_Doors_040318-6003-1	75.030	1.0.0.268	695065	1	2060943687	Professional	2.0.10.356	2.0.10.356	04-25-2018		19:17:09	2.0.10.252	2	0	685040	0	0	5000	690040	0	690040	11	685040	0	0	0	684931	690040	685029	0	RunWinLose	2	1	2	RunList	412499	t	412499	390267	25	2	1		-9	9	622638	2999		0	0	-9	622529	9	622038	600	0	0	625637		0	0	600	-8	626129	0	626129	8	625637	600	0	100		0	0	625529	fix+	626129	625629	1	lossfollowloss	Line.bmp	1100	1100	-7	628229	7	627236	0	0	0	626237		0	0	1000	-8	627129	0	627129	8	626237	999	0	100		0	0	626129		627129	626229	1	LoseProc				25	1	25		RunBlock2	RunWinLose	23		loss
SPADE_Doors_040318	6003	1	18+	<?xml version="1.0"?>\n<Clock xmlns:dt="urn:schemas-microsoft-com:datatypes"><Description dt:dt="string">E-Prime Primary Realtime Clock</Description><StartTime><Timestamp dt:dt="int">0</Timestamp><DateUtc dt:dt="string">2018-04-25T23:17:09Z</DateUtc></StartTime><FrequencyChanges><FrequencyChange><Frequency dt:dt="r8">3410097</Frequency><Timestamp dt:dt="r8">118024403687</Timestamp><Current dt:dt="r8">0</Current><DateUtc dt:dt="string">2018-04-25T23:17:09Z</DateUtc></FrequencyChange></FrequencyChanges></Clock>\n	SPADE_Doors_040318-6003-1	75.030	1.0.0.268	695065	1	2060943687	Professional	2.0.10.356	2.0.10.356	04-25-2018		19:17:09	2.0.10.252	2	0	685040	0	0	5000	690040	0	690040	11	685040	0	0	0	684931	690040	685029	0	RunWinLose	2	1	2	RunList	412499	t	412499	390267	26	2	1		0	0	628929	3012		0	0	0	628829	0	628329	600	0	0	631941		0	0	600	-12	632429	0	632429	12	631941	600	0	100		0	0	631829	fix+	632429	631929	1	winfollowloss	DownArrow.bmp	1100	1100	-25	634529	25	633554	0	0	0	632541		0	0	1000	-12	633429	0	633429	12	632541	1013	0	100		0	0	632429		633429	632529	1	LoseProc				26	1	26		RunBlock2	RunWinLose	24		win
SPADE_Doors_040318	6003	1	18+	<?xml version="1.0"?>\n<Clock xmlns:dt="urn:schemas-microsoft-com:datatypes"><Description dt:dt="string">E-Prime Primary Realtime Clock</Description><StartTime><Timestamp dt:dt="int">0</Timestamp><DateUtc dt:dt="string">2018-04-25T23:17:09Z</DateUtc></StartTime><FrequencyChanges><FrequencyChange><Frequency dt:dt="r8">3410097</Frequency><Timestamp dt:dt="r8">118024403687</Timestamp><Current dt:dt="r8">0</Current><DateUtc dt:dt="string">2018-04-25T23:17:09Z</DateUtc></FrequencyChange></FrequencyChanges></Clock>\n	SPADE_Doors_040318-6003-1	75.030	1.0.0.268	695065	1	2060943687	Professional	2.0.10.356	2.0.10.356	04-25-2018		19:17:09	2.0.10.252	2	0	685040	0	0	5000	690040	0	690040	11	685040	0	0	0	684931	690040	685029	0	RunWinLose	2	1	2	RunList	412499	t	412499	390267	27	2	1		-4	4	635233	2999		0	0	-4	635129	4	634633	600	0	0	638232		0	0	600	-3	638729	0	638729	3	638232	600	0	100		0	0	638129	fix+	638729	638229	1	lossfollowwin	Line.bmp	5300	5300	-2	645029	2	639831	0	0	0	638832		0	0	1000	-3	639729	0	639729	3	638832	999	0	100		0	0	638729		639729	638829	1	LoseProc				27	1	27		RunBlock2	RunWinLose	25		loss
SPADE_Doors_040318	6003	1	18+	<?xml version="1.0"?>\n<Clock xmlns:dt="urn:schemas-microsoft-com:datatypes"><Description dt:dt="string">E-Prime Primary Realtime Clock</Description><StartTime><Timestamp dt:dt="int">0</Timestamp><DateUtc dt:dt="string">2018-04-25T23:17:09Z</DateUtc></StartTime><FrequencyChanges><FrequencyChange><Frequency dt:dt="r8">3410097</Frequency><Timestamp dt:dt="r8">118024403687</Timestamp><Current dt:dt="r8">0</Current><DateUtc dt:dt="string">2018-04-25T23:17:09Z</DateUtc></FrequencyChange></FrequencyChanges></Clock>\n	SPADE_Doors_040318-6003-1	75.030	1.0.0.268	695065	1	2060943687	Professional	2.0.10.356	2.0.10.356	04-25-2018		19:17:09	2.0.10.252	2	0	685040	0	0	5000	690040	0	690040	11	685040	0	0	0	684931	690040	685029	0	RunWinLose	2	1	2	RunList	412499	t	412499	390267	28	2	1		-7	7	645736	2998		0	0	-7	645629	7	645136	600	0	0	648734		0	0	600	-5	649229	0	649229	5	648734	600	0	100		0	0	648629	fix+	649229	648729	1	lossfollowloss	Line.bmp	5300	5300	-18	655529	18	650347	0	0	0	649334		0	0	1000	-5	650229	0	650229	5	649334	1013	0	100		0	0	649229		650229	649329	1	LoseProc				28	1	28		RunBlock2	RunWinLose	26		loss
SPADE_Doors_040318	6003	1	18+	<?xml version="1.0"?>\n<Clock xmlns:dt="urn:schemas-microsoft-com:datatypes"><Description dt:dt="string">E-Prime Primary Realtime Clock</Description><StartTime><Timestamp dt:dt="int">0</Timestamp><DateUtc dt:dt="string">2018-04-25T23:17:09Z</DateUtc></StartTime><FrequencyChanges><FrequencyChange><Frequency dt:dt="r8">3410097</Frequency><Timestamp dt:dt="r8">118024403687</Timestamp><Current dt:dt="r8">0</Current><DateUtc dt:dt="string">2018-04-25T23:17:09Z</DateUtc></FrequencyChange></FrequencyChanges></Clock>\n	SPADE_Doors_040318-6003-1	75.030	1.0.0.268	695065	1	2060943687	Professional	2.0.10.356	2.0.10.356	04-25-2018		19:17:09	2.0.10.252	2	0	685040	0	0	5000	690040	0	690040	11	685040	0	0	0	684931	690040	685029	0	RunWinLose	2	1	2	RunList	412499	t	412499	390267	29	2	1		-9	9	656238	2999		0	0	-9	656129	9	655638	600	0	0	659237		0	0	600	-8	659729	0	659729	8	659237	600	0	100		0	0	659129	fix+	659729	659229	1	lossfollowloss	Line.bmp	3200	3200	-7	663929	7	660836	0	0	0	659837		0	0	1000	-8	660729	0	660729	8	659837	999	0	100		0	0	659729		660729	659829	1	LoseProc				29	1	29		RunBlock2	RunWinLose	27		loss
SPADE_Doors_040318	6003	1	18+	<?xml version="1.0"?>\n<Clock xmlns:dt="urn:schemas-microsoft-com:datatypes"><Description dt:dt="string">E-Prime Primary Realtime Clock</Description><StartTime><Timestamp dt:dt="int">0</Timestamp><DateUtc dt:dt="string">2018-04-25T23:17:09Z</DateUtc></StartTime><FrequencyChanges><FrequencyChange><Frequency dt:dt="r8">3410097</Frequency><Timestamp dt:dt="r8">118024403687</Timestamp><Current dt:dt="r8">0</Current><DateUtc dt:dt="string">2018-04-25T23:17:09Z</DateUtc></FrequencyChange></FrequencyChanges></Clock>\n	SPADE_Doors_040318-6003-1	75.030	1.0.0.268	695065	1	2060943687	Professional	2.0.10.356	2.0.10.356	04-25-2018		19:17:09	2.0.10.252	2	0	685040	0	0	5000	690040	0	690040	11	685040	0	0	0	684931	690040	685029	0	RunWinLose	2	1	2	RunList	412499	t	412499	390267	30	2	1		-6	6	664635	2998		0	0	-6	664529	6	664035	600	0	1	667634		0	0	600	-4	668129	0	668129	4	667633	600	0	100		0	0	667529	fix+	668129	667629	1	lossfollowloss	Line.bmp	1100	1100	-4	670229	4	669233	0	0	0	668233		0	0	1000	-4	669129	0	669129	4	668233	1000	0	100		0	0	668129		669129	668229	1	LoseProc				30	1	30		RunBlock2	RunWinLose	28		loss
SPADE_Doors_040318	6003	1	18+	<?xml version="1.0"?>\n<Clock xmlns:dt="urn:schemas-microsoft-com:datatypes"><Description dt:dt="string">E-Prime Primary Realtime Clock</Description><StartTime><Timestamp dt:dt="int">0</Timestamp><DateUtc dt:dt="string">2018-04-25T23:17:09Z</DateUtc></StartTime><FrequencyChanges><FrequencyChange><Frequency dt:dt="r8">3410097</Frequency><Timestamp dt:dt="r8">118024403687</Timestamp><Current dt:dt="r8">0</Current><DateUtc dt:dt="string">2018-04-25T23:17:09Z</DateUtc></FrequencyChange></FrequencyChanges></Clock>\n	SPADE_Doors_040318-6003-1	75.030	1.0.0.268	695065	1	2060943687	Professional	2.0.10.356	2.0.10.356	04-25-2018		19:17:09	2.0.10.252	2	0	685040	0	0	5000	690040	0	690040	11	685040	0	0	0	684931	690040	685029	0	RunWinLose	2	1	2	RunList	412499	t	412499	390267	31	2	1		-10	10	670939	2999		0	0	-10	670829	10	670339	600	0	0	673938		0	0	600	-9	674429	0	674429	9	673938	599	0	100		0	0	673829	fix+	674429	673929	1	winfollowloss	DownArrow.bmp	3200	3200	-8	678629	8	675537	0	0	0	674537		0	0	1000	-8	675429	0	675429	8	674537	1000	0	100		0	0	674429		675429	674529	1	LoseProc				31	1	31		RunBlock2	RunWinLose	29		win
SPADE_Doors_040318	6003	1	18+	<?xml version="1.0"?>\n<Clock xmlns:dt="urn:schemas-microsoft-com:datatypes"><Description dt:dt="string">E-Prime Primary Realtime Clock</Description><StartTime><Timestamp dt:dt="int">0</Timestamp><DateUtc dt:dt="string">2018-04-25T23:17:09Z</DateUtc></StartTime><FrequencyChanges><FrequencyChange><Frequency dt:dt="r8">3410097</Frequency><Timestamp dt:dt="r8">118024403687</Timestamp><Current dt:dt="r8">0</Current><DateUtc dt:dt="string">2018-04-25T23:17:09Z</DateUtc></FrequencyChange></FrequencyChanges></Clock>\n	SPADE_Doors_040318-6003-1	75.030	1.0.0.268	695065	1	2060943687	Professional	2.0.10.356	2.0.10.356	04-25-2018		19:17:09	2.0.10.252	2	0	685040	0	0	5000	690040	0	690040	11	685040	0	0	0	684931	690040	685029	0	RunWinLose	2	1	2	RunList	412499	t	412499	390267	32	2	1		-7	7	679336	2998		0	0	-7	679229	7	678736	600	0	0	682334		0	0	600	-5	682829	0	682829	5	682334	600	0	100		0	0	682229	fix+	682829	682329	1	winfollowwin	DownArrow.bmp	1100	1100	-18	684929	18	683947	0	0	0	682934		0	0	1000	-5	683829	0	683829	5	682934	1013	0	100		0	0	682829		683829	682929	1	LoseProc				32	1	32		RunBlock2	RunWinLose	30		win
